loggingTime,loggingSample,locationTimestamp_since1970,locationLatitude,locationLongitude,locationAltitude,locationSpeed,locationCourse,locationVerticalAccuracy,locationHorizontalAccuracy,locationFloor,locationHeadingTimestamp_since1970,locationHeadingX,locationHeadingY,locationHeadingZ,locationTrueHeading,locationMagneticHeading,locationHeadingAccuracy,accelerometerTimestamp_sinceReboot,accelerometerAccelerationX,accelerometerAccelerationY,accelerometerAccelerationZ,gyroTimestamp_sinceReboot,gyroRotationX,gyroRotationY,gyroRotationZ,magnetometerTimestamp_sinceReboot,magnetometerX,magnetometerY,magnetometerZ,motionTimestamp_sinceReboot,motionYaw,motionRoll,motionPitch,motionRotationRateX,motionRotationRateY,motionRotationRateZ,motionUserAccelerationX,motionUserAccelerationY,motionUserAccelerationZ,motionAttitudeReferenceFrame,motionQuaternionX,motionQuaternionY,motionQuaternionZ,motionQuaternionW,motionGravityX,motionGravityY,motionGravityZ,motionMagneticFieldX,motionMagneticFieldY,motionMagneticFieldZ,motionHeading,motionMagneticFieldCalibrationAccuracy,activityTimestamp_sinceReboot,activity,activityActivityConfidence,activityActivityStartDate,pedometerStartDate,pedometerNumberofSteps,pedometerAverageActivePace,pedometerCurrentPace,pedometerCurrentCadence,pedometerDistance,pedometerFloorAscended,pedometerFloorDescended,pedometerEndDate,altimeterTimestamp_sinceReboot,altimeterReset,altimeterRelativeAltitude,altimeterPressure,IP_Timestamp_since1970,IP_en0,IP_pdp_ip0,deviceID,deviceOrientationTimeStamp_since1970,deviceOrientation,batteryTimeStamp_since1970,batteryState,batteryLevel,avAudioRecorder_Timestamp_since1970,avAudioRecorderPeakPower,avAudioRecorderAveragePower,label
1615614819.28994,1,0,0,0,0,0,0,0,0,0,1615614819.270283,1.261402130126953,11.79039478302002,-35.49403762817383,348.2175598144531,355.2374572753906,13.57440280914307,63793.00325375,-0.003570556640625,-0.088104248046875,-0.994354248046875,63793.00325375,0.217707023024559,-0.05486138537526131,0.0172418374568224,63792.98995375,10.178466796875,5.867843627929688,-24.24848937988281,63792.97088175001,-0.4915773988136586,0.0134247379966414,0.06964135562519501,-0.1045985966920853,-0.1274276077747345,0.1558458209037781,0.02689142152667046,-0.01079823821783066,0.0023842453956604,2,0.03539884279398974,-0.001964075004031531,-0.2429417650222138,0.9693927778279713,0.01339179463684559,-0.06958507746458054,-0.9974861145019531,1.357810020446777,11.60731506347656,-35.30959320068359,-1,2,63791.57726950001,1,2,1615614817.859861,1615611623.065331,2877,0.8998966,0,0,1976.718,3,8,1615614665.185486,63790.424274,0,-2.013443,99.48103,0,0,0,0,0,1,1615614819.262071,1,0.13,1615611989.648667,-120,-120,0
1615614819.319809,2,0,0,0,0,0,0,0,0,0,1615614819.310037,1.29081916809082,11.76193523406982,-35.20643997192383,348.3377685546875,355.357666015625,13.5744571685791,63793.03687175,-0.0056304931640625,-0.1101226806640625,-0.9702606201171875,63793.03687175,0.1565749645233154,0.0931701585650444,-0.5205625295639038,63792.98995375,10.178466796875,5.867843627929688,-24.24848937988281,63792.97088175001,-0.4915773988136586,0.0134247379966414,0.06964135562519501,-0.1045985966920853,-0.1274276077747345,0.1558458209037781,0.02689142152667046,-0.01079823821783066,0.0023842453956604,2,0.03539884279398974,-0.001964075004031531,-0.2429417650222138,0.9693927778279713,0.01339179463684559,-0.06958507746458054,-0.9974861145019531,1.357810020446777,11.60731506347656,-35.30959320068359,-1,2,63791.57726950001,1,2,1615614817.859861,1615611623.065331,2877,0.8998966,0,0,1976.718,3,8,1615614665.185486,63790.424274,0,-2.013443,99.48103,0,0,0,0,0,1,1615614819.262071,1,0.13,1615611989.648667,-120,-120,0
1615614819.359844,3,0,0,0,0,0,0,0,0,0,1615614819.350289,1.086424827575684,11.62881660461426,-35.04779815673828,349.6316833496094,356.6515808105469,13.57458209991455,63793.07049075,0.0061492919921875,-0.0981597900390625,-0.9749298095703125,63793.07049075,0.5154294967651367,0.1394697427749634,-0.6403874158859253,63793.04993975,10.09657287597656,5.68353271484375,-24.03253173828125,63793.03064675,-0.4931088270200168,0.01266974146136641,0.07791970406213725,0.1451008915901184,0.07448717951774597,-0.4473635256290436,-0.01792574673891068,-0.03425019979476929,0.02635049819946289,2,0.03931629128771709,-0.003367508832513029,-0.2436346704058339,0.9690638880092877,0.01263096090406179,-0.07784087955951691,-0.9968857765197754,1.266907691955566,11.77352237701416,-35.44124221801758,-1,2,63791.57726950001,1,2,1615614817.859861,1615611623.065331,2877,0.8998966,0,0,1976.718,3,8,1615614665.185486,63790.424274,0,-2.013443,99.48103,0,0,0,0,0,1,1615614819.262071,1,0.13,1615611989.648667,-120,-120,0
1615614819.389491,4,0,0,0,0,0,0,0,0,0,1615614819.369728,0.8426370620727539,11.43583488464355,-35.37905120849609,350.3589477539062,357.3788452148438,13.57494735717773,63793.10410875001,0.000823974609375,-0.1130828857421875,-0.9491119384765625,63793.10410875001,0.9781180620193481,0.2552152574062347,-0.5035731196403503,63793.04993975,10.09657287597656,5.68353271484375,-24.03253173828125,63793.09041275,-0.5292561737571522,0.02383676378569162,0.1008031020134866,0.8248546719551086,0.2034902274608612,-0.5613895654678345,-0.02238599024713039,-0.006621561944484711,0.04453730583190918,2,0.05173624337086404,-0.001687405157177635,-0.2606200984545429,0.9640527057899686,0.02371351420879364,-0.1006324738264084,-0.9946410059928894,0.7297935485839844,11.35052490234375,-35.78376007080078,-1,2,63791.57726950001,1,2,1615614817.859861,1615611623.065331,2877,0.8998966,0,0,1976.718,3,8,1615614665.185486,63790.424274,0,-2.013443,99.48103,0,0,0,0,0,1,1615614819.262071,1,0.13,1615611989.648667,-120,-120,0
1615614819.419648,5,0,0,0,0,0,0,0,0,0,1615614819.409874,0.6890945434570312,10.3365421295166,-36.3809814453125,351.6044921875,358.6243896484375,13.57567596435547,63793.13772675001,-0.0133056640625,-0.137542724609375,-1.006637573242188,63793.13772675001,0.7535582184791565,-0.2309791594743729,-0.5371600985527039,63793.10992875,9.617538452148438,4.6229248046875,-25.07524108886719,63793.09041275,-0.5292561737571522,0.02383676378569162,0.1008031020134866,0.8248546719551086,0.2034902274608612,-0.5613895654678345,-0.02238599024713039,-0.006621561944484711,0.04453730583190918,2,0.05173624337086404,-0.001687405157177635,-0.2606200984545429,0.9640527057899686,0.02371351420879364,-0.1006324738264084,-0.9946410059928894,0.7297935485839844,11.35052490234375,-35.78376007080078,-1,2,63791.57726950001,1,2,1615614817.859861,1615611623.065331,2877,0.8998966,0,0,1976.718,3,8,1615614665.185486,63790.424274,0,-2.013443,99.48103,0,0,0,0,0,1,1615614819.262071,1,0.13,1615611989.648667,-120,-120,0
1615614819.459234,6,0,0,0,0,0,0,0,0,0,1615614819.449654,0.5669488906860352,8.596720695495605,-37.74429321289062,352.9168701171875,359.936767578125,13.5764045715332,63793.17134575,-0.0107269287109375,-0.213836669921875,-0.965423583984375,63793.17134575,0.08731412887573242,-0.4489690065383911,-0.5840586423873901,63793.16991975001,9.313064575195312,2.159423828125,-26.95834350585938,63793.15017875,-0.5620941456635252,0.02914658978529475,0.1511768349464753,0.4773080348968506,-0.3519867360591888,-0.5683290362358093,-0.02610926516354084,-0.04533645510673523,-0.003677129745483398,2,0.07657630178503806,-0.006982114139996498,-0.2754831398581296,0.9582255620141802,0.02881008014082909,-0.1506016552448273,-0.9881746172904968,0.6621789932250977,9.008186340332031,-37.42804718017578,-1,2,63791.57726950001,1,2,1615614817.859861,1615611623.065331,2877,0.8998966,0,0,1976.718,3,8,1615614665.185486,63790.424274,0,-2.013443,99.48103,0,0,0,0,0,1,1615614819.262071,1,0.13,1615611989.648667,-120,-120,0
1615614819.491751,7,0,0,0,0,0,0,0,0,0,1615614819.489143,-0.27716064453125,7.723198413848877,-38.81137084960938,354.3045654296875,1.324458360671997,13.57713317871094,63793.20496375,-0.0294189453125,-0.1887054443359375,-0.9430389404296875,63793.17134575,0.08731412887573242,-0.4489690065383911,-0.5840586423873901,63793.16991975001,9.313064575195312,2.159423828125,-26.95834350585938,63793.15017875,-0.5620941456635252,0.02914658978529475,0.1511768349464753,0.4773080348968506,-0.3519867360591888,-0.5683290362358093,-0.02610926516354084,-0.04533645510673523,-0.003677129745483398,2,0.07657630178503806,-0.006982114139996498,-0.2754831398581296,0.9582255620141802,0.02881008014082909,-0.1506016552448273,-0.9881746172904968,0.6621789932250977,9.008186340332031,-37.42804718017578,-1,2,63791.57726950001,1,2,1615614817.859861,1615611623.065331,2877,0.8998966,0,0,1976.718,3,8,1615614665.185486,63790.424274,0,-2.013443,99.48103,0,0,0,0,0,1,1615614819.262071,1,0.13,1615611989.648667,-120,-120,0
1615614819.519279,8,0,0,0,0,0,0,0,0,0,1615614819.509457,-0.9108037948608398,7.429198265075684,-39.36573791503906,355.0925598144531,2.112457275390625,13.57749652862549,63793.23858175,-0.0380401611328125,-0.1694793701171875,-0.974517822265625,63793.23858175,-0.2404802441596985,-0.2850751578807831,-0.777065098285675,63793.22991775,7.580184936523438,1.414138793945312,-28.61834716796875,63793.20994475,-0.5984545537748955,0.006735364984196779,0.1516534158900086,-0.2280893474817276,-0.5014239549636841,-0.6655722856521606,-0.04582730680704117,-0.03148338198661804,0.03325426578521729,2,0.07337737330523877,-0.01912202225021807,-0.2936894397409638,0.9528884652924563,0.006658010650426149,-0.151072770357132,-0.9885002374649048,-0.6171655654907227,7.545727729797363,-39.11216354370117,-1,2,63791.57726950001,1,2,1615614817.859861,1615611623.065331,2877,0.8998966,0,0,1976.718,3,8,1615614665.185486,63790.424274,0,-2.013443,99.48103,0,0,0,0,0,1,1615614819.262071,1,0.13,1615611989.648667,-120,-120,0
1615614819.560073,9,0,0,0,0,0,0,0,0,0,1615614819.549315,-2.107271194458008,7.214348793029785,-40.12444305419922,356.8915100097656,3.911386013031006,13.57822513580322,63793.27219975,-0.0453643798828125,-0.1455841064453125,-0.9995574951171875,63793.27219975,-0.1699778586626053,-0.3430774509906769,-0.7469016313552856,63793.22991775,7.580184936523438,1.414138793945312,-28.61834716796875,63793.20994475,-0.5984545537748955,0.006735364984196779,0.1516534158900086,-0.2280893474817276,-0.5014239549636841,-0.6655722856521606,-0.04582730680704117,-0.03148338198661804,0.03325426578521729,2,0.07337737330523877,-0.01912202225021807,-0.2936894397409638,0.9528884652924563,0.006658010650426149,-0.151072770357132,-0.9885002374649048,-0.6171655654907227,7.545727729797363,-39.11216354370117,-1,2,63791.57726950001,1,2,1615614817.859861,1615611623.065331,2877,0.8998966,0,0,1976.718,3,8,1615614665.185486,63790.424274,0,-2.013443,99.48103,0,0,0,0,0,1,1615614819.262071,1,0.13,1615611989.648667,-120,-120,0
1615614819.588814,10,0,0,0,0,0,0,0,0,0,1615614819.569416,-2.534469604492188,6.925934314727783,-40.30828094482422,357.7315063476562,4.751388072967529,13.57858848571777,63793.30581775001,0.0064697265625,-0.1433868408203125,-0.991058349609375,63793.27219975,-0.1699778586626053,-0.3430774509906769,-0.7469016313552856,63793.28990875,6.162399291992188,0.733184814453125,-29.2476806640625,63793.26970975001,-0.6441781362063328,-0.006502921388715965,0.1373642924398894,-0.1926331520080566,-0.329535037279129,-0.7572662830352783,-0.0319342166185379,-0.005477562546730042,-0.01002037525177002,2,0.06407187789503922,-0.02480103465598097,-0.3160125641724639,0.9462641025308557,-0.006441620644181967,-0.1369327157735825,-0.9905593991279602,-2.353691577911377,7.026551246643066,-40.34806442260742,-1,2,63791.57726950001,1,2,1615614817.859861,1615611623.065331,2877,0.8998966,0,0,1976.718,3,8,1615614665.185486,63790.424274,0,-2.013443,99.48103,0,0,0,0,0,1,1615614819.262071,1,0.13,1615611989.648667,-120,-120,0
1615614819.62836,11,0,0,0,0,0,0,0,0,0,1615614819.60879,-3.53632926940918,6.674243450164795,-40.99174499511719,359.0211181640625,6.040998935699463,13.57931518554688,63793.33943675,-0.0145263671875,-0.1301116943359375,-0.970977783203125,63793.33943675,0.2498540431261063,-0.1466219276189804,-0.4768885374069214,63793.28990875,6.162399291992188,0.733184814453125,-29.2476806640625,63793.32947575,-0.6798788476355567,-0.02445858898899066,0.1368910906267919,0.1838285773992538,-0.205346867442131,-0.4783134460449219,0.008327722549438477,0.005436718463897705,0.02173608541488647,2,0.06040558454761289,-0.03430447074880907,-0.333412912656299,0.9402180881055664,-0.02422736398875713,-0.1364639550447464,-0.990348756313324,-3.70627498626709,6.569094657897949,-41.13816452026367,-1,2,63791.57726950001,1,2,1615614817.859861,1615611623.065331,2877,0.8998966,0,0,1976.718,3,8,1615614665.185486,63790.424274,0,-2.013443,99.48103,0,0,0,0,0,1,1615614819.262071,1,0.13,1615611989.648667,-120,-120,0
1615614819.658585,12,0,0,0,0,0,0,0,0,0,1615614819.648522,-3.988294124603271,6.047135353088379,-41.57394409179688,0.09110736846923828,7.110992908477783,13.58004283905029,63793.37305475,0.00335693359375,-0.146636962890625,-1.019256591796875,63793.37305475,0.2897838950157166,-0.4896173775196075,-0.4558322429656982,63793.34990575,4.9886474609375,0.1475830078125,-30.40615844726562,63793.32947575,-0.6798788476355567,-0.02445858898899066,0.1368910906267919,0.1838285773992538,-0.205346867442131,-0.4783134460449219,0.008327722549438477,0.005436718463897705,0.02173608541488647,2,0.06040558454761289,-0.03430447074880907,-0.333412912656299,0.9402180881055664,-0.02422736398875713,-0.1364639550447464,-0.990348756313324,-3.70627498626709,6.569094657897949,-41.13816452026367,-1,2,63791.57726950001,1,2,1615614817.859861,1615611623.065331,2877,0.8998966,0,0,1976.718,3,8,1615614665.185486,63790.424274,0,-2.013443,99.48103,0,0,0,0,0,1,1615614819.262071,1,0.13,1615611989.648667,-120,-120,0
1615614819.688222,13,0,0,0,0,0,0,0,0,0,1615614819.668597,-4.362074375152588,5.746246337890625,-42.20516586303711,0.5993218421936035,7.619207382202148,13.58040523529053,63793.40667275,-0.0098724365234375,-0.154815673828125,-0.9796295166015625,63793.40667275,0.2712397575378418,-0.5284321308135986,-0.3652762472629547,63793.34990575,4.9886474609375,0.1475830078125,-30.40615844726562,63793.38924175,-0.7071212502758737,-0.0412209611075186,0.1533984666710971,0.257981538772583,-0.6122873425483704,-0.4198366701602936,0.03460663557052612,-0.00349821150302887,-0.006493687629699707,2,0.0647545736386777,-0.04580213433419046,-0.3466306061752,0.9346422855390721,-0.04072538763284683,-0.1527975648641586,-0.987417995929718,-4.535130500793457,5.599237442016602,-42.41777038574219,-1,2,63791.57726950001,1,2,1615614817.859861,1615611623.065331,2877,0.8998966,0,0,1976.718,3,8,1615614665.185486,63790.424274,0,-2.013443,99.48103,0,0,0,0,0,1,1615614819.262071,1,0.13,1615611989.648667,-120,-120,0
1615614819.743138,14,0,0,0,0,0,0,0,0,0,1615614819.728268,-5.639581203460693,4.600289821624756,-42.86480331420898,1.965792179107666,8.985677719116211,13.58149528503418,63793.44029175,-0.027008056640625,-0.1734619140625,-0.9346771240234375,63793.44029175,0.3425799906253815,-0.292927473783493,-0.1959881484508514,63793.40989875,3.947906494140625,-0.8810577392578125,-31.57131958007812,63793.38924175,-0.7071212502758737,-0.0412209611075186,0.1533984666710971,0.257981538772583,-0.6122873425483704,-0.4198366701602936,0.03460663557052612,-0.00349821150302887,-0.006493687629699707,2,0.0647545736386777,-0.04580213433419046,-0.3466306061752,0.9346422855390721,-0.04072538763284683,-0.1527975648641586,-0.987417995929718,-4.535130500793457,5.599237442016602,-42.41777038574219,-1,2,63791.57726950001,1,2,1615614817.859861,1615611623.065331,2877,0.8998966,0,0,1976.718,3,8,1615614665.185486,63790.424274,0,-2.013443,99.48103,0,0,0,0,0,1,1615614819.262071,1,0.13,1615611989.648667,-120,-120,0
1615614819.758089,15,0,0,0,0,0,0,0,0,0,1615614819.748279,-5.99647045135498,4.270065307617188,-43.04630279541016,2.166934490203857,9.186820030212402,13.58185768127441,63793.47390975001,0.0075225830078125,-0.188140869140625,-0.9068756103515625,63793.47390975001,0.3012629151344299,-0.3530004024505615,-0.1844619810581207,63793.46989775,2.778762817382812,-1.865829467773438,-32.11097717285156,63793.44900775,-0.7241670028564484,-0.06526356652896712,0.1715525157432299,0.3442082405090332,-0.2541482150554657,-0.1654122024774551,0.04088346660137177,0.003613278269767761,0.09046202898025513,2,0.06855921674447292,-0.06072893748800398,-0.3553470918736168,0.9302365446082514,-0.06425991654396057,-0.1707122772932053,-0.9832232594490051,-5.869644165039062,4.429248332977295,-42.91337585449219,-1,2,63791.57726950001,1,2,1615614817.859861,1615611623.065331,2877,0.8998966,0,0,1976.718,3,8,1615614665.185486,63790.424274,0,-2.013443,99.48103,0,0,0,0,0,1,1615614819.262071,1,0.13,1615611989.648667,-120,-120,0
1615614819.804635,16,0,0,0,0,0,0,0,0,0,1615614819.788179,-6.507724761962891,3.562370300292969,-43.20427322387695,2.732071399688721,9.751956939697266,13.5825834274292,63793.50752775001,-0.00762939453125,-0.1953277587890625,-0.8825531005859375,63793.50752775001,0.2651571035385132,-0.5975078940391541,-0.2800497710704803,63793.46989775,2.778762817382812,-1.865829467773438,-32.11097717285156,63793.44900775,-0.7241670028564484,-0.06526356652896712,0.1715525157432299,0.3442082405090332,-0.2541482150554657,-0.1654122024774551,0.04088346660137177,0.003613278269767761,0.09046202898025513,2,0.06855921674447292,-0.06072893748800398,-0.3553470918736168,0.9302365446082514,-0.06425991654396057,-0.1707122772932053,-0.9832232594490051,-5.869644165039062,4.429248332977295,-42.91337585449219,-1,2,63791.57726950001,1,2,1615614817.859861,1615611623.065331,2877,0.8998966,0,0,1976.718,3,8,1615614665.185486,63790.424274,0,-2.013443,99.48103,0,0,0,0,0,1,1615614819.262071,1,0.13,1615611989.648667,-120,-120,0
1615614819.828161,17,0,0,0,0,0,0,0,0,0,1615614819.807905,-7.009709358215332,3.395051240921021,-43.40423965454102,3.120956897735596,10.14084243774414,13.58294677734375,63793.54114675,-0.0184326171875,-0.1890106201171875,-0.9130401611328125,63793.54114675,0.2867414951324463,-0.7504526972770691,-0.3940658271312714,63793.52989675001,1.524826049804688,-2.921188354492188,-32.26409912109375,63793.50877375001,-0.735509829112048,-0.08785884280427871,0.1894309603956022,0.255997508764267,-0.6056001782417297,-0.2825041115283966,0.07312996685504913,-0.01120860874652863,0.1107087135314941,2,0.07244756044945892,-0.07476386004900006,-0.3614402106286252,0.9265649088003587,-0.08617621660232544,-0.1883000582456589,-0.9783234596252441,-6.72101354598999,3.456279754638672,-43.34165191650391,-1,2,63791.57726950001,1,2,1615614817.859861,1615611623.065331,2877,0.8998966,0,0,1976.718,3,8,1615614665.185486,63790.424274,0,-2.013443,99.48103,0,0,0,0,0,1,1615614819.262071,1,0.13,1615611989.648667,-120,-120,0
1615614819.863292,18,0,0,0,0,0,0,0,0,0,1615614819.84778,-8.200661659240723,2.856868267059326,-43.40676498413086,4.173566341400146,11.19345188140869,13.58367156982422,63793.57476475,-0.037811279296875,-0.207855224609375,-0.9606475830078125,63793.57476475,0.03707066923379898,-0.6144775748252869,-0.5254834890365601,63793.52989675001,1.524826049804688,-2.921188354492188,-32.26409912109375,63793.50877375001,-0.735509829112048,-0.08785884280427871,0.1894309603956022,0.255997508764267,-0.6056001782417297,-0.2825041115283966,0.07312996685504913,-0.01120860874652863,0.1107087135314941,2,0.07244756044945892,-0.07476386004900006,-0.3614402106286252,0.9265649088003587,-0.08617621660232544,-0.1883000582456589,-0.9783234596252441,-6.72101354598999,3.456279754638672,-43.34165191650391,-1,2,63791.57726950001,1,2,1615614817.859861,1615611623.065331,2877,0.8998966,0,0,1976.718,3,8,1615614665.185486,63790.424274,0,-2.013443,99.48103,0,0,0,0,0,1,1615614819.262071,1,0.13,1615611989.648667,-120,-120,0
1615614819.897596,19,0,0,0,0,0,0,0,0,0,1615614819.887594,-9.594963073730469,2.398029804229736,-42.89176559448242,5.578155040740967,12.59804058074951,13.58439540863037,63793.60838275,-0.0820770263671875,-0.21868896484375,-1.049285888671875,63793.60838275,-0.06755746901035309,-0.3788418471813202,-0.6697165369987488,63793.58989275,-0.433074951171875,-3.418655395507812,-32.0814208984375,63793.56853975001,-0.7571484229390451,-0.1255182795056897,0.2059316514251812,0.07240976393222809,-0.6711810231208801,-0.4920572638511658,0.08132986724376678,-0.002277374267578125,0.00603640079498291,2,0.07226055241951373,-0.09588216895555363,-0.3729047137910929,0.9200690071729312,-0.1225438192486763,-0.2044792175292969,-0.9711700677871704,-8.57325553894043,2.731683254241943,-43.38156509399414,-1,2,63791.57726950001,1,2,1615614817.859861,1615611623.065331,2877,0.8998966,0,0,1976.718,3,8,1615614665.185486,63790.424274,0,-2.013443,99.48103,0,0,0,0,0,1,1615614819.262071,1,0.13,1615611989.648667,-120,-120,0
1615614819.927034,20,0,0,0,0,0,0,0,0,0,1615614819.907688,-10.20726585388184,2.311070680618286,-42.84426498413086,6.410338878631592,13.43022441864014,13.58475780487061,63793.64200025,-0.090240478515625,-0.1730194091796875,-1.0439453125,63793.64200025,-0.1240756064653397,0.1761127114295959,-0.6607899069786072,63793.58989275,-0.433074951171875,-3.418655395507812,-32.0814208984375,63793.62830475,-0.7951692950716734,-0.1434372457876778,0.2079238490391262,-0.1172348856925964,-0.03348974511027336,-0.7295701503753662,0.05632522702217102,0.03386726975440979,-0.06372171640396118,2,0.06783892996263971,-0.1057886323700162,-0.3909682144123702,0.9117841840299407,-0.1398670673370361,-0.2064289152622223,-0.9684132933616638,-10.49864673614502,2.275804996490479,-42.88504028320312,-1,2,63791.57726950001,1,2,1615614817.859861,1615611623.065331,2877,0.8998966,0,0,1976.718,3,8,1615614665.185486,63790.424274,0,-2.013443,99.48103,0,0,0,0,0,1,1615614819.262071,1,0.13,1615611989.648667,-120,-120,0
1615614819.957296,21,0,0,0,0,0,0,0,0,0,1615614819.947549,-11.01152038574219,2.345625400543213,-42.59386825561523,7.818374156951904,14.83825969696045,13.58548164367676,63793.67561825,-0.146270751953125,-0.2533416748046875,-1.05999755859375,63793.67561825,-0.08842147141695023,0.4276277720928192,-0.455249547958374,63793.64988725,-1.940826416015625,-3.637451171875,-31.55021667480469,63793.62830475,-0.7951692950716734,-0.1434372457876778,0.2079238490391262,-0.1172348856925964,-0.03348974511027336,-0.7295701503753662,0.05632522702217102,0.03386726975440979,-0.06372171640396118,2,0.06783892996263971,-0.1057886323700162,-0.3909682144123702,0.9117841840299407,-0.1398670673370361,-0.2064289152622223,-0.9684132933616638,-10.49864673614502,2.275804996490479,-42.88504028320312,-1,2,63791.57726950001,1,2,1615614817.859861,1615611623.065331,2877,0.8998966,0,0,1976.718,3,8,1615614665.185486,63790.424274,0,-2.013443,99.48103,0,0,0,0,0,1,1615614819.262071,1,0.13,1615611989.648667,-120,-120,0
1615614819.997251,22,0,0,0,0,0,0,0,0,0,1615614819.987184,-10.88125705718994,2.565139055252075,-42.63690185546875,9.254127502441406,16.27401351928711,13.58620643615723,63793.70923725,-0.212921142578125,-0.23565673828125,-0.99517822265625,63793.70923725,-0.06925976276397705,0.9907976388931274,-1.368062615394592,63793.67988925,-2.094802856445312,-3.542221069335938,-31.53536987304688,63793.68807025001,-0.8305913278297646,-0.1189227129407138,0.2051156373706627,-0.1086924746632576,0.5972751379013062,-0.7528285980224609,-0.09511762112379074,-0.0458465963602066,-0.008163094520568848,2,0.06965994185792672,-0.09532172745222196,-0.406198022175827,0.9061260811555427,-0.1161555424332619,-0.2036803811788559,-0.9721225500106812,-11.02603340148926,2.5338134765625,-42.59638214111328,-1,2,63791.57726950001,1,2,1615614817.859861,1615611623.065331,2877,0.8998966,0,0,1976.718,3,8,1615614665.185486,63790.424274,0,-2.013443,99.48103,0,0,0,0,0,1,1615614819.262071,1,0.13,1615611989.648667,-120,-120,0
1615614820.04187,23,0,0,0,0,0,0,0,0,0,1615614820.027223,-9.921201705932617,2.222568988800049,-42.81930923461914,12.73662185668945,19.75650787353516,13.58692932128906,63793.74285525001,-0.1676788330078125,-0.2870941162109375,-1.065948486328125,63793.74285525001,-0.1417869627475739,0.7056902647018433,-1.738308906555176,63793.73988125,-0.8249664306640625,-3.820480346679688,-31.77513122558594,63793.68807025001,-0.8305913278297646,-0.1189227129407138,0.2051156373706627,-0.1086924746632576,0.5972751379013062,-0.7528285980224609,-0.09511762112379074,-0.0458465963602066,-0.008163094520568848,2,0.06965994185792672,-0.09532172745222196,-0.406198022175827,0.9061260811555427,-0.1161555424332619,-0.2036803811788559,-0.9721225500106812,-11.02603340148926,2.5338134765625,-42.59638214111328,-1,2,63791.57726950001,1,2,1615614817.859861,1615611623.065331,2877,0.8998966,0,0,1976.718,3,8,1615614665.185486,63790.424274,0,-2.013443,99.48103,0,0,0,0,0,1,1615614819.262071,1,0.13,1615611989.648667,-120,-120,0
1615614820.057008,24,0,0,0,0,0,0,0,0,0,1615614820.04698,-9.404561996459961,1.805000305175781,-43.07892990112305,14.34993362426758,21.36981964111328,13.58729076385498,63793.77647325001,-0.13922119140625,-0.405487060546875,-1.109283447265625,63793.77647325001,-0.5771719813346863,0.1421912312507629,-0.4742368161678314,63793.73988125,-0.8249664306640625,-3.820480346679688,-31.77513122558594,63793.74783625,-0.9197928437544071,-0.04959363913510749,0.2060611666860659,-0.1870239078998566,0.5795037150382996,-1.625632286071777,-0.1098463907837868,-0.1394339203834534,-0.1893360018730164,2,0.0811872461116297,-0.06773606462440526,-0.4436509160726992,0.8899406290492951,-0.04852455854415894,-0.2046059966087341,-0.9776409268379211,-9.653557777404785,2.023574829101562,-42.97289657592773,-1,2,63791.57726950001,1,2,1615614817.859861,1615611623.065331,2877,0.8998966,0,0,1976.718,3,8,1615614665.185486,63790.424274,0,-2.013443,99.48103,0,0,0,0,0,1,1615614819.262071,1,0.13,1615611989.648667,-120,-120,0
1615614820.102334,25,0,0,0,0,0,0,0,0,0,1615614820.086995,-9.090925216674805,1.804229259490967,-43.27605056762695,15.02468490600586,22.04457092285156,13.58801460266113,63793.81009225,-0.048187255859375,-0.1331787109375,-1.040298461914062,63793.77647325001,-0.5771719813346863,0.1421912312507629,-0.4742368161678314,63793.79987325001,-0.105194091796875,-4.110382080078125,-32.23701477050781,63793.74783625,-0.9197928437544071,-0.04959363913510749,0.2060611666860659,-0.1870239078998566,0.5795037150382996,-1.625632286071777,-0.1098463907837868,-0.1394339203834534,-0.1893360018730164,2,0.0811872461116297,-0.06773606462440526,-0.4436509160726992,0.8899406290492951,-0.04852455854415894,-0.2046059966087341,-0.9776409268379211,-9.653557777404785,2.023574829101562,-42.97289657592773,-1,2,63791.57726950001,1,2,1615614817.859861,1615611623.065331,2877,0.8998966,0,0,1976.718,3,8,1615614665.185486,63791.368454,0,-2.016098,99.48108,0,0,0,0,0,1,1615614819.262071,1,0.13,1615611989.648667,-120,-120,0
1615614820.126924,26,0,0,0,0,0,0,0,0,0,1615614820.106731,-9.04069709777832,2.234523057937622,-43.34963226318359,14.82964324951172,21.84952926635742,13.58837509155273,63793.84371025,0.044677734375,-0.1939849853515625,-0.953369140625,63793.84371025,-0.215615913271904,-0.2820210456848145,0.3009566366672516,63793.79987325001,-0.105194091796875,-4.110382080078125,-32.23701477050781,63793.80760225,-0.9528736308669412,-0.03439830667661456,0.1819730285359164,-0.2138135135173798,-0.09578952938318253,0.1712854951620102,-0.003743443638086319,0.05989187955856323,-0.0556064248085022,2,0.0728755320561259,-0.05688393040453359,-0.4580397874570262,0.8841113399810413,-0.03382366895675659,-0.1809703707695007,-0.9829067587852478,-9.067035675048828,2.046779632568359,-43.34113311767578,-1,2,63791.57726950001,1,2,1615614817.859861,1615611623.065331,2877,0.8998966,0,0,1976.718,3,8,1615614665.185486,63791.368454,0,-2.016098,99.48108,0,0,0,0,0,1,1615614819.262071,1,0.13,1615611989.648667,-120,-120,0
1615614820.166187,27,0,0,0,0,0,0,0,0,0,1615614820.146688,-9.262002944946289,2.564151525497437,-43.19383239746094,14.22112655639648,21.24101257324219,13.58909797668457,63793.87732925,-0.0237579345703125,-0.0982208251953125,-0.982025146484375,63793.87732925,-0.489064484834671,-0.9281880855560303,0.5595756769180298,63793.85986425001,-0.3162384033203125,-3.378646850585938,-32.1273193359375,63793.86736825,-0.936163674023764,-0.05744896290379517,0.1678365380944416,-0.4754068851470947,-0.750832736492157,0.4506390690803528,0.0395207479596138,0.06774547696113586,-0.002784371376037598,2,0.06186050816825532,-0.06334284268402406,-0.4515504973038424,0.8878418454786619,-0.05661056563258171,-0.1670496761798859,-0.9843219518661499,-9.349382400512695,2.671307802200317,-43.17710113525391,-1,2,63791.57726950001,1,2,1615614817.859861,1615611623.065331,2877,0.8998966,0,0,1976.718,3,8,1615614665.185486,63791.368454,0,-2.016098,99.48108,0,0,0,0,0,1,1615614819.262071,1,0.13,1615611989.648667,-120,-120,0
1615614820.196429,28,0,0,0,0,0,0,0,0,0,1615614820.186489,-9.992074012756348,3.32733154296875,-42.72077178955078,13.04056167602539,20.06044769287109,13.58981990814209,63793.91094725001,-0.023681640625,-0.046783447265625,-0.873046875,63793.91094725001,-0.2931285500526428,-0.6114439368247986,0.7542091012001038,63793.85986425001,-0.3162384033203125,-3.378646850585938,-32.1273193359375,63793.86736825,-0.936163674023764,-0.05744896290379517,0.1678365380944416,-0.4754068851470947,-0.750832736492157,0.4506390690803528,0.0395207479596138,0.06774547696113586,-0.002784371376037598,2,0.06186050816825532,-0.06334284268402406,-0.4515504973038424,0.8878418454786619,-0.05661056563258171,-0.1670496761798859,-0.9843219518661499,-9.349382400512695,2.671307802200317,-43.17710113525391,-1,2,63791.57726950001,1,2,1615614817.859861,1615611623.065331,2877,0.8998966,0,0,1976.718,3,8,1615614665.185486,63791.368454,0,-2.016098,99.48108,0,0,0,0,0,1,1615614819.262071,1,0.13,1615611989.648667,-120,-120,0
1615614820.225926,29,0,0,0,0,0,0,0,0,0,1615614820.206458,-10.60860538482666,3.694645643234253,-42.38857650756836,12.25796127319336,19.27784729003906,13.59018039703369,63793.94456425001,-0.142730712890625,-0.0234832763671875,-0.947601318359375,63793.94456425001,0.005211806390434504,0.200730174779892,0.3861285150051117,63793.91985525,-1.757568359375,-2.209686279296875,-31.26713562011719,63793.92713325001,-0.8977008586058913,-0.10745093851285,0.1414086847737853,-0.127971425652504,-0.1015002205967903,0.6327259540557861,0.01626906543970108,0.1158371567726135,0.08941125869750977,2,0.04031226860708347,-0.07887057639837337,-0.4356392797826913,0.8957525614945436,-0.1061738282442093,-0.1409378796815872,-0.9843087196350098,-10.90652275085449,3.993584394454956,-42.29707336425781,-1,2,63791.57726950001,1,2,1615614817.859861,1615611623.065331,2877,0.8998966,0,0,1976.718,3,8,1615614665.185486,63791.368454,0,-2.016098,99.48108,0,0,0,0,0,1,1615614819.262071,1,0.13,1615611989.648667,-120,-120,0
1615614820.284296,30,0,0,0,0,0,0,0,0,0,1615614820.266255,-10.88226413726807,4.858441829681396,-42.1068115234375,10.43207931518555,17.45196533203125,13.59126281738281,63793.97818325,-0.1511688232421875,-0.134002685546875,-0.9416351318359375,63793.97818325,0.0892915278673172,0.2807349860668182,0.2770755290985107,63793.97984425,-1.85321044921875,-1.100204467773438,-31.06983947753906,63793.92713325001,-0.8977008586058913,-0.10745093851285,0.1414086847737853,-0.127971425652504,-0.1015002205967903,0.6327259540557861,0.01626906543970108,0.1158371567726135,0.08941125869750977,2,0.04031226860708347,-0.07887057639837337,-0.4356392797826913,0.8957525614945436,-0.1061738282442093,-0.1409378796815872,-0.9843087196350098,-10.90652275085449,3.993584394454956,-42.29707336425781,-1,2,63791.57726950001,1,2,1615614817.859861,1615611623.065331,2877,0.8998966,0,0,1976.718,3,8,1615614665.185486,63791.368454,0,-2.016098,99.48108,1615614820.284273,1681917671,1682799177,0,0,1,1615614819.262071,1,0.13,1615611989.648667,-120,-120,0
1615614820.295828,31,0,0,0,0,0,0,0,0,0,1615614820.286193,-10.61600303649902,4.915772438049316,-42.20553207397461,10.15973663330078,17.17962265014648,13.59162330627441,63794.01180125,-0.10662841796875,-0.0939483642578125,-0.9319305419921875,63794.01180125,0.01646419428288937,0.3357875943183899,0.2432981431484222,63793.97984425,-1.85321044921875,-1.100204467773438,-31.06983947753906,63793.98689925001,-0.8753215487966454,-0.09751832053738874,0.1405055354345675,0.07372232526540756,0.2245920747518539,0.2451237738132477,-0.007172293961048126,0.03271335363388062,0.03510838747024536,2,0.04289718392096841,-0.07375181676203804,-0.4253727914583191,0.9009875084768304,-0.09640434384346008,-0.1400436908006668,-0.9854410290718079,-10.76857757568359,4.914330005645752,-42.18342590332031,-1,2,63791.57726950001,1,2,1615614817.859861,1615611623.065331,2877,0.8998966,0,0,1976.718,3,8,1615614665.185486,63791.368454,0,-2.016098,99.48108,1615614820.284273,1681917671,1682799177,0,0,1,1615614819.262071,1,0.13,1615611989.648667,-120,-120,0
1615614820.342105,32,0,0,0,0,0,0,0,0,0,1615614820.326016,-9.953855514526367,5.096835136413574,-42.43685531616211,9.477130889892578,16.49701690673828,13.59234428405762,63794.04541925,-0.1024932861328125,-0.1087493896484375,-1.04254150390625,63794.04541925,-0.4681144654750824,0.3812738656997681,0.3959417343139648,63794.03983725001,-0.908233642578125,-0.85302734375,-31.424560546875,63793.98689925001,-0.8753215487966454,-0.09751832053738874,0.1405055354345675,0.07372232526540756,0.2245920747518539,0.2451237738132477,-0.007172293961048126,0.03271335363388062,0.03510838747024536,2,0.04289718392096841,-0.07375181676203804,-0.4253727914583191,0.9009875084768304,-0.09640434384346008,-0.1400436908006668,-0.9854410290718079,-10.76857757568359,4.914330005645752,-42.18342590332031,-1,2,63791.57726950001,1,2,1615614817.859861,1615611623.065331,2877,0.8998966,0,0,1976.718,3,8,1615614665.185486,63791.368454,0,-2.016098,99.48108,1615614820.284273,1681917671,1682799177,0,0,1,1615614819.262071,1,0.13,1615611989.648667,-120,-120,0
1615614820.36594,33,0,0,0,0,0,0,0,0,0,1615614820.345877,-9.541107177734375,5.418198585510254,-42.50111389160156,9.081098556518555,16.10098457336426,13.5927038192749,63794.07903825001,-0.0936737060546875,-0.0777435302734375,-1.053421020507812,63794.07903825001,-0.7584784030914307,0.2201632559299469,0.2969770729541779,63794.03983725001,-0.908233642578125,-0.85302734375,-31.424560546875,63794.04666525,-0.858155582975734,-0.07985617552761184,0.1328228103019502,-0.5033946633338928,0.3684909343719482,0.3974451720714569,-0.007784292101860046,0.03009191155433655,-0.07724380493164062,2,0.04372836351086093,-0.06380591721084967,-0.4171932923072284,0.9055199629513664,-0.07906870543956757,-0.132432609796524,-0.9880332946777344,-9.746631622314453,5.192420959472656,-42.4677734375,-1,2,63791.57726950001,1,2,1615614817.859861,1615611623.065331,2877,0.8998966,0,0,1976.718,3,8,1615614665.185486,63791.368454,0,-2.016098,99.48108,1615614820.284273,1681917671,1682799177,0,0,1,1615614819.262071,1,0.13,1615611989.648667,-120,-120,0
1615614820.39553,34,0,0,0,0,0,0,0,0,0,1615614820.3856,-8.852602958679199,6.667276859283447,-42.23309326171875,8.785085678100586,15.80497074127197,13.59342479705811,63794.11265625001,-0.04754638671875,-0.069000244140625,-1.023727416992188,63794.07903825001,-0.7584784030914307,0.2201632559299469,0.2969770729541779,63794.09982025,0.142303466796875,0.845367431640625,-31.1346435546875,63794.04666525,-0.858155582975734,-0.07985617552761184,0.1328228103019502,-0.5033946633338928,0.3684909343719482,0.3974451720714569,-0.007784292101860046,0.03009191155433655,-0.07724380493164062,2,0.04372836351086093,-0.06380591721084967,-0.4171932923072284,0.9055199629513664,-0.07906870543956757,-0.132432609796524,-0.9880332946777344,-9.746631622314453,5.192420959472656,-42.4677734375,-1,2,63791.57726950001,1,2,1615614817.859861,1615611623.065331,2877,0.8998966,0,0,1976.718,3,8,1615614665.185486,63791.368454,0,-2.016098,99.48108,1615614820.284273,1681917671,1682799177,0,0,1,1615614819.262071,1,0.13,1615611989.648667,-120,-120,0
1615614820.43545,35,0,0,0,0,0,0,0,0,0,1615614820.425729,-8.499682426452637,7.157994747161865,-41.80509567260742,9.047445297241211,16.06733131408691,13.59414482116699,63794.14627525,-0.0680084228515625,0.002960205078125,-1.044342041015625,63794.14627525,0.02684279903769493,-0.316281795501709,0.1115395799279213,63794.09982025,0.142303466796875,0.845367431640625,-31.1346435546875,63794.10643125,-0.8489632900421676,-0.06683570578526526,0.0971195404294472,-0.1482491940259933,0.1363451182842255,-0.2123064696788788,0.00926605612039566,0.0283634141087532,-0.0375131368637085,2,0.03046380917573067,-0.05039078966452423,-0.412611230379586,0.9090019802265885,-0.06647123396396637,-0.0969669371843338,-0.9930654764175415,-8.709103584289551,6.963930130004883,-42.01308441162109,-1,2,63791.57726950001,1,2,1615614817.859861,1615611623.065331,2877,0.8998966,0,0,1976.718,3,8,1615614665.185486,63791.368454,0,-2.016098,99.48108,1615614820.284273,1681917671,1682799177,0,0,1,1615614819.262071,1,0.13,1615611989.648667,-120,-120,0
1615614820.465436,36,0,0,0,0,0,0,0,0,0,1615614820.44558,-8.704632759094238,7.267304420471191,-41.95999908447266,8.812782287597656,15.83266735076904,13.59450435638428,63794.17989325,-0.0716094970703125,-0.0453948974609375,-1.037353515625,63794.17989325,-0.7762142419815063,-0.007800132501870394,0.4143447279930115,63794.15981225001,0.22088623046875,1.289566040039062,-30.899169921875,63794.16619725,-0.8464745178798444,-0.08122579110743378,0.09237072754581516,-0.5234282612800598,-0.2814489603042603,0.4375590980052948,0.01093590259552002,0.02244571596384048,-0.0772939920425415,2,0.0254025500419955,-0.05592633949398915,-0.4116470988612455,0.9092708430617874,-0.08079060912132263,-0.09223942458629608,-0.992453932762146,-8.885342597961426,7.299829959869385,-41.97373962402344,-1,2,63791.57726950001,1,2,1615614817.859861,1615611623.065331,2877,0.8998966,0,0,1976.718,3,8,1615614665.185486,63791.368454,0,-2.016098,99.48108,1615614820.284273,1681917671,1682799177,0,0,1,1615614819.262071,1,0.13,1615611989.648667,-120,-120,0
1615614820.495022,37,0,0,0,0,0,0,0,0,0,1615614820.485367,-9.071146965026855,7.823895454406738,-41.50495910644531,8.068605422973633,15.08849048614502,13.59522342681885,63794.21351125,-0.1384124755859375,-0.0483856201171875,-1.05859375,63794.21351125,-0.293188214302063,0.2551715672016144,0.2060804665088654,63794.15981225001,0.22088623046875,1.289566040039062,-30.899169921875,63794.16619725,-0.8464745178798444,-0.08122579110743378,0.09237072754581516,-0.5234282612800598,-0.2814489603042603,0.4375590980052948,0.01093590259552002,0.02244571596384048,-0.0772939920425415,2,0.0254025500419955,-0.05592633949398915,-0.4116470988612455,0.9092708430617874,-0.08079060912132263,-0.09223942458629608,-0.992453932762146,-8.885342597961426,7.299829959869385,-41.97373962402344,-1,2,63791.57726950001,1,2,1615614817.859861,1615611623.065331,2877,0.8998966,0,0,1976.718,3,8,1615614665.185486,63791.368454,0,-2.016098,99.48108,1615614820.284273,1681917671,1682799177,0,0,1,1615614819.262071,1,0.13,1615611989.648667,-120,-120,0
1615614820.535318,38,0,0,0,0,0,0,0,0,0,1615614820.525123,-8.586068153381348,8.788585662841797,-40.35186386108398,7.680259227752686,14.70014476776123,13.59594249725342,63794.24712925,-0.1018524169921875,-0.0424346923828125,-1.06573486328125,63794.24712925,0.2301453202962875,-0.322556734085083,0.1344480812549591,63794.21980025,0.170623779296875,2.64703369140625,-29.94490051269531,63794.22596225001,-0.830713887778431,-0.07453656158110258,0.05797708180400959,-0.03594593703746796,0.0484778955578804,0.1577936410903931,-0.06905963271856308,0.03043300285935402,-0.08334004878997803,2,0.01147301366104269,-0.04576482552496984,-0.404055060782269,0.9135171032584319,-0.07434244453907013,-0.05794460698962212,-0.995547890663147,-8.704514503479004,8.705820083618164,-40.802734375,-1,2,63791.57726950001,1,2,1615614817.859861,1615611623.065331,2877,0.8998966,0,0,1976.718,3,8,1615614665.185486,63791.368454,0,-2.016098,99.48108,1615614820.284273,1681917671,1682799177,0,0,1,1615614819.262071,1,0.13,1615611989.648667,-120,-120,0
1615614820.583937,39,0,0,0,0,0,0,0,0,0,1615614820.564861,-8.681905746459961,8.779430389404297,-40.33032989501953,7.142271518707275,14.16215705871582,13.5966625213623,63794.28074725001,-0.092041015625,-0.013824462890625,-1.004196166992188,63794.28074725001,0.1925944834947586,-0.1441816687583923,0.3501766622066498,63794.27979625,0.2361602783203125,2.785537719726562,-29.35427856445312,63794.22596225001,-0.830713887778431,-0.07453656158110258,0.05797708180400959,-0.03594593703746796,0.0484778955578804,0.1577936410903931,-0.06905963271856308,0.03043300285935402,-0.08334004878997803,2,0.01147301366104269,-0.04576482552496984,-0.404055060782269,0.9135171032584319,-0.07434244453907013,-0.05794460698962212,-0.995547890663147,-8.704514503479004,8.705820083618164,-40.802734375,-1,2,63791.57726950001,1,2,1615614817.859861,1615611623.065331,2877,0.8998966,0,0,1976.718,3,8,1615614665.185486,63791.368454,0,-2.016098,99.48108,1615614820.284273,1681917671,1682799177,0,0,1,1615614819.262071,1,0.13,1615611989.648667,-120,-120,0
1615614820.594898,40,0,0,0,0,0,0,0,0,0,1615614820.584969,-8.939038276672363,8.669856071472168,-40.59960174560547,6.663258075714111,13.68314361572266,13.59702110290527,63794.31436525,-0.097564697265625,-0.0466766357421875,-0.9963531494140625,63794.31436525,0.03609568625688553,0.02441559359431267,0.3470927178859711,63794.27979625,0.2361602783203125,2.785537719726562,-29.35427856445312,63794.28572825,-0.8172768523381929,-0.08986707590011403,0.06729431922695703,0.1696359664201736,-0.08023688942193985,0.396748811006546,0.004948332905769348,0.05911059677600861,-0.00215446949005127,2,0.01300106672490087,-0.05455065779829901,-0.3981211587773728,0.9156170938915548,-0.08954302966594696,-0.0672435387969017,-0.9937103986740112,-8.820157051086426,8.665291786193848,-40.48666381835938,-1,2,63791.57726950001,1,2,1615614817.859861,1615611623.065331,2877,0.8998966,0,0,1976.718,3,8,1615614665.185486,63791.368454,0,-2.016098,99.48108,1615614820.284273,1681917671,1682799177,0,0,1,1615614819.262071,1,0.13,1615611989.648667,-120,-120,0
1615614820.642923,41,0,0,0,0,0,0,0,0,0,1615614820.624863,-8.753596305847168,8.716779708862305,-40.94036102294922,5.920175075531006,12.94006061553955,13.59773921966553,63794.34798425,-0.09393310546875,-0.067596435546875,-1.067474365234375,63794.34798425,-0.0920066237449646,-0.1011556461453438,0.2722227275371552,63794.33979125,0.2185821533203125,2.804397583007812,-29.93800354003906,63794.28572825,-0.8172768523381929,-0.08986707590011403,0.06729431922695703,0.1696359664201736,-0.08023688942193985,0.396748811006546,0.004948332905769348,0.05911059677600861,-0.00215446949005127,2,0.01300106672490087,-0.05455065779829901,-0.3981211587773728,0.9156170938915548,-0.08954302966594696,-0.0672435387969017,-0.9937103986740112,-8.820157051086426,8.665291786193848,-40.48666381835938,-1,2,63791.57726950001,1,2,1615614817.859861,1615611623.065331,2877,0.8998966,0,0,1976.718,3,8,1615614665.185486,63791.368454,0,-2.016098,99.48108,1615614820.284273,1681917671,1682799177,0,0,1,1615614819.262071,1,0.13,1615611989.648667,-120,-120,0
1615614820.664766,42,0,0,0,0,0,0,0,0,0,1615614820.644855,-8.775681495666504,8.865528106689453,-41.23023223876953,5.606509685516357,12.6263952255249,13.5980978012085,63794.38160225,-0.0848236083984375,-0.0599517822265625,-1.12371826171875,63794.38160225,-0.4192705154418945,-0.3858044147491455,0.4503285586833954,63794.33979125,0.2185821533203125,2.804397583007812,-29.93800354003906,63794.34549425,-0.7965980835965365,-0.09223221352093483,0.06689846902883055,-0.09725935757160187,-0.09384356439113617,0.2706107497215271,-0.001762934029102325,-0.004974551498889923,-0.0823596715927124,2,0.01292253252860845,-0.05542451586177094,-0.3886430709618492,0.9196290438165406,-0.09189548343420029,-0.06684858351945877,-0.9935222864151001,-8.756606101989746,8.808286666870117,-41.17070770263672,-1,2,63791.57726950001,1,2,1615614817.859861,1615611623.065331,2877,0.8998966,0,0,1976.718,3,8,1615614665.185486,63791.368454,0,-2.016098,99.48108,1615614820.284273,1681917671,1682799177,0,0,1,1615614819.262071,1,0.13,1615611989.648667,-120,-120,0
1615614820.704189,43,0,0,0,0,0,0,0,0,0,1615614820.685731,-8.821253776550293,9.286845207214355,-40.85023498535156,4.654524326324463,11.67440986633301,13.59881591796875,63794.41522125,-0.1248321533203125,-0.0181427001953125,-0.972137451171875,63794.41522125,-0.3316599726676941,-0.6053037643432617,0.4708245098590851,63794.39978225,0.117218017578125,3.389511108398438,-29.77499389648438,63794.40526025,-0.7731607228374454,-0.1134946884393905,0.04470994064149694,-0.4569964408874512,-0.6161977648735046,0.5790249705314636,-0.01488320529460907,0.01494039595127106,0.00755763053894043,2,-0.0007080419633436405,-0.06093234947947179,-0.3774966318803582,0.9240038327367847,-0.1131380125880241,-0.04469504579901695,-0.9925734996795654,-8.945005416870117,9.490264892578125,-40.61677551269531,-1,2,63791.57726950001,1,2,1615614817.859861,1615611623.065331,2877,0.8998966,0,0,1976.718,3,8,1615614665.185486,63791.368454,0,-2.016098,99.48108,1615614820.284273,1681917671,1682799177,0,1615614820.704035,1,1615614819.262071,1,0.13,1615611989.648667,-120,-120,0
1615614820.734093,44,0,0,0,0,0,0,0,0,0,1615614820.728812,-9.342423439025879,10.16639804840088,-39.63352203369141,3.913139820098877,10.93302536010742,13.59953308105469,63794.44883925001,-0.111236572265625,-0.019439697265625,-0.8737945556640625,63794.44883925001,0.2458513081073761,0.2123218476772308,-0.07286062836647034,63794.39978225,0.117218017578125,3.389511108398438,-29.77499389648438,63794.40526025,-0.7731607228374454,-0.1134946884393905,0.04470994064149694,-0.4569964408874512,-0.6161977648735046,0.5790249705314636,-0.01488320529460907,0.01494039595127106,0.00755763053894043,2,-0.0007080419633436405,-0.06093234947947179,-0.3774966318803582,0.9240038327367847,-0.1131380125880241,-0.04469504579901695,-0.9925734996795654,-8.945005416870117,9.490264892578125,-40.61677551269531,-1,2,63791.57726950001,1,2,1615614817.859861,1615611623.065331,2877,0.8998966,0,0,1976.718,3,8,1615614665.185486,63791.368454,0,-2.016098,99.48108,1615614820.284273,1681917671,1682799177,0,1615614820.704035,1,1615614819.262071,1,0.13,1615611989.648667,-120,-120,0
1615614820.764094,45,0,0,0,0,0,0,0,0,0,1615614820.744364,-9.444034576416016,10.14980125427246,-38.83722686767578,3.955591678619385,10.97547721862793,13.59989261627197,63794.48245625001,-0.1313018798828125,-0.0385894775390625,-0.9950714111328125,63794.48245625001,0.5565159916877747,0.580024778842926,-0.02665078453719616,63794.45977625001,-0.479400634765625,4.154037475585938,-27.68814086914062,63794.46502625001,-0.7639181398618013,-0.1220154737594134,0.04291446715481995,0.4584473073482513,0.5055006742477417,-0.1145650073885918,-0.0106622651219368,0.006692178547382355,0.03271293640136719,2,-0.002848255534595889,-0.0645456095718617,-0.3731738619150099,0.9255090711102484,-0.1216008812189102,-0.04290129616856575,-0.9916514754295349,-9.510077476501465,10.14648628234863,-39.1077766418457,-1,2,63791.57726950001,1,2,1615614817.859861,1615611623.065331,2877,0.8998966,0,0,1976.718,3,8,1615614665.185486,63791.368454,0,-2.016098,99.48108,1615614820.284273,1681917671,1682799177,0,1615614820.704035,1,1615614819.262071,1,0.13,1615611989.648667,-120,-120,0
1615614820.809781,46,0,0,0,0,0,0,0,0,0,1615614820.804172,-8.569132804870605,9.199506759643555,-40.22689056396484,3.599574565887451,10.619460105896,13.60096740722656,63794.51607525,-0.1133270263671875,-0.0587921142578125,-1.0125732421875,63794.48245625001,0.5565159916877747,0.580024778842926,-0.02665078453719616,63794.48977725,-0.0998687744140625,3.67022705078125,-28.28472900390625,63794.46502625001,-0.7639181398618013,-0.1220154737594134,0.04291446715481995,0.4584473073482513,0.5055006742477417,-0.1145650073885918,-0.0106622651219368,0.006692178547382355,0.03271293640136719,2,-0.002848255534595889,-0.0645456095718617,-0.3731738619150099,0.9255090711102484,-0.1216008812189102,-0.04290129616856575,-0.9916514754295349,-9.510077476501465,10.14648628234863,-39.1077766418457,-1,2,63791.57726950001,1,2,1615614817.859861,1615611623.065331,2877,0.8998966,0,0,1976.718,3,8,1615614665.185486,63791.368454,0,-2.016098,99.48108,1615614820.284273,1681917671,1682799177,0,1615614820.704035,1,1615614819.262071,1,0.13,1615611989.648667,-120,-120,0
1615614820.834079,47,0,0,0,0,0,0,0,0,0,1615614820.823839,-8.013801574707031,8.901660919189453,-40.98009490966797,3.27977991104126,10.2996654510498,13.60132598876953,63794.54969325,-0.06304931640625,-0.0633697509765625,-1.007583618164062,63794.54969325,0.174448236823082,0.5041456818580627,0.2733266055583954,63794.54977725,1.394561767578125,2.547470092773438,-30.11412048339844,63794.52479125001,-0.756017529380414,-0.08975264171520354,0.07110699873323696,0.3342421054840088,0.5325955748558044,0.2475486099720001,-0.003032028675079346,0.008302934467792511,-0.014384925365448,2,0.01645674257290365,-0.05477354955704319,-0.3699480497400509,0.9272903231874672,-0.08940568566322327,-0.0710470899939537,-0.993458092212677,-8.311511993408203,9.064419746398926,-40.710205078125,-1,2,63791.57726950001,1,2,1615614817.859861,1615611623.065331,2877,0.8998966,0,0,1976.718,3,8,1615614665.185486,63791.368454,0,-2.016098,99.48108,1615614820.284273,1681917671,1682799177,0,1615614820.704035,1,1615614819.262071,1,0.13,1615611989.648667,-120,-120,0
1615614820.884424,48,0,0,0,0,0,0,0,0,0,1615614820.883853,-6.632376670837402,8.540402412414551,-41.5537223815918,2.265888690948486,9.285774230957031,13.6023998260498,63794.58331125,-0.0379791259765625,-0.080413818359375,-1.05810546875,63794.58331125,-0.006788930390030146,0.05799219757318497,0.3068542182445526,63794.54977725,1.394561767578125,2.547470092773438,-30.11412048339844,63794.52479125001,-0.756017529380414,-0.08975264171520354,0.07110699873323696,0.3342421054840088,0.5325955748558044,0.2475486099720001,-0.003032028675079346,0.008302934467792511,-0.014384925365448,2,0.01645674257290365,-0.05477354955704319,-0.3699480497400509,0.9272903231874672,-0.08940568566322327,-0.0710470899939537,-0.993458092212677,-8.311511993408203,9.064419746398926,-40.710205078125,-1,2,63791.57726950001,1,2,1615614817.859861,1615611623.065331,2877,0.8998966,0,0,1976.718,3,8,1615614665.185486,63791.368454,0,-2.016098,99.48108,1615614820.284273,1681917671,1682799177,0,1615614820.704035,1,1615614819.262071,1,0.13,1615611989.648667,-120,-120,0
1615614820.903773,49,0,0,0,0,0,0,0,0,0,1615614820.883853,-6.632376670837402,8.540402412414551,-41.5537223815918,2.265888690948486,9.285774230957031,13.6023998260498,63794.61693025001,-0.0753936767578125,-0.0614013671875,-1.002914428710938,63794.58331125,-0.006788930390030146,0.05799219757318497,0.3068542182445526,63794.60976425,2.427322387695312,2.639129638671875,-30.46138000488281,63794.58455725,-0.738994889152404,-0.06789751780426971,0.07783793714384811,-0.02138430252671242,0.03971369937062263,0.3117121160030365,0.02442706376314163,-0.002013601362705231,-0.05052155256271362,2,0.02401336928667446,-0.04567129367637456,-0.3618969681962181,0.9307889067766864,-0.06763993948698044,-0.07775936275720596,-0.9946749806404114,-6.754154682159424,8.505122184753418,-41.55197906494141,-1,2,63791.57726950001,1,2,1615614817.859861,1615611623.065331,2877,0.8998966,0,0,1976.718,3,8,1615614665.185486,63791.368454,0,-2.016098,99.48108,1615614820.284273,1681917671,1682799177,0,1615614820.704035,1,1615614819.262071,1,0.13,1615611989.648667,-120,-120,0
1615614820.940005,50,0,0,0,0,0,0,0,0,0,1615614820.923661,-6.258718967437744,8.697750091552734,-41.52073669433594,1.471776485443115,8.49166202545166,13.60311603546143,63794.650548375,-0.0553436279296875,-0.0577239990234375,-0.9719390869140625,63794.61693025001,-0.0137621508911252,0.1314014345407486,0.3511777222156525,63794.60976425,2.427322387695312,2.639129638671875,-30.46138000488281,63794.58455725,-0.738994889152404,-0.06789751780426971,0.07783793714384811,-0.02138430252671242,0.03971369937062263,0.3117121160030365,0.02442706376314163,-0.002013601362705231,-0.05052155256271362,2,0.02401336928667446,-0.04567129367637456,-0.3618969681962181,0.9307889067766864,-0.06763993948698044,-0.07775936275720596,-0.9946749806404114,-6.754154682159424,8.505122184753418,-41.55197906494141,-1,2,63791.57726950001,1,2,1615614817.859861,1615611623.065331,2877,0.8998966,0,0,1976.718,3,8,1615614665.185486,63791.368454,0,-2.016098,99.48108,1615614820.284273,1681917671,1682799177,0,1615614820.704035,1,1615614819.262071,1,0.13,1615611989.648667,-120,-120,0
1615614820.973413,51,0,0,0,0,0,0,0,0,0,1615614820.963552,-5.772909164428711,8.7659912109375,-41.25226974487305,0.9205789566040039,7.940464496612549,13.60383129119873,63794.684167375,-0.0614013671875,-0.0644683837890625,-0.96551513671875,63794.684167375,-0.0736640989780426,0.1230233907699585,0.1590804606676102,63794.66975537501,3.204238891601562,2.680450439453125,-30.14448547363281,63794.644323375,-0.7186928990055653,-0.06275221827335303,0.07492932321187661,-0.0333084762096405,0.2120107859373093,0.3037445247173309,0.008686833083629608,0.01647908985614777,0.02547425031661987,2,0.02402196439055689,-0.04251194681833315,-0.3523427608529686,0.9345962476340688,-0.06253508478403091,-0.07485923171043396,-0.9952313303947449,-6.146873474121094,8.703371047973633,-41.62977600097656,-1,2,63791.57726950001,1,2,1615614817.859861,1615611623.065331,2877,0.8998966,0,0,1976.718,3,8,1615614665.185486,63791.368454,0,-2.016098,99.48108,1615614820.284273,1681917671,1682799177,0,1615614820.704035,1,1615614819.262071,1,0.13,1615611989.648667,-120,-120,0
1615614821.00307,52,0,0,0,0,0,0,0,0,0,1615614820.983466,-5.562335968017578,8.996352195739746,-41.58203887939453,0.7577924728393555,7.7776780128479,13.60418891906738,63794.717785375,-0.0615386962890625,-0.0561370849609375,-0.93878173828125,63794.717785375,-0.07612086832523346,0.1199626252055168,0.08758018165826797,63794.66975537501,3.204238891601562,2.680450439453125,-30.14448547363281,63794.704089375,-0.7072438379895069,-0.05413293788150256,0.06972492783925541,-0.1132401525974274,0.1419090628623962,0.1103904992341995,-0.01850419119000435,0.01714768260717392,0.06962579488754272,2,0.02332051207618887,-0.03743912910513212,-0.3468456519959981,0.9368843993170988,-0.05397503450512886,-0.06966844946146011,-0.9961089491844177,-5.436345100402832,9.01400089263916,-41.56602478027344,-1,2,63791.57726950001,1,2,1615614817.859861,1615611623.065331,2877,0.8998966,0,0,1976.718,3,8,1615614665.185486,63791.368454,0,-2.016098,99.48108,1615614820.284273,1681917671,1682799177,0,1615614820.704035,1,1615614819.262071,1,0.13,1615611989.648667,-120,-120,0
1615614821.033155,53,0,0,0,0,0,0,0,0,0,1615614821.023158,-5.09689474105835,9.059463500976562,-41.36465454101562,0.5535178184509277,7.573403358459473,13.60490417480469,63794.751402375,-0.0110931396484375,-0.0798797607421875,-0.9972991943359375,63794.751402375,0.226112499833107,-0.006562029011547565,0.02509896084666252,63794.72974537501,3.809341430664062,3.142959594726562,-30.3255615234375,63794.704089375,-0.7072438379895069,-0.05413293788150256,0.06972492783925541,-0.1132401525974274,0.1419090628623962,0.1103904992341995,-0.01850419119000435,0.01714768260717392,0.06962579488754272,2,0.02332051207618887,-0.03743912910513212,-0.3468456519959981,0.9368843993170988,-0.05397503450512886,-0.06966844946146011,-0.9961089491844177,-5.436345100402832,9.01400089263916,-41.56602478027344,-1,2,63791.57726950001,1,2,1615614817.859861,1615611623.065331,2877,0.8998966,0,0,1976.718,3,8,1615614665.185486,63792.312565,0,-2.098007,99.48206,1615614820.284273,1681917671,1682799177,0,1615614820.704035,1,1615614819.262071,1,0.13,1615611989.648667,-120,-120,0
1615614821.072515,54,0,0,0,0,0,0,0,0,0,1615614821.063131,-5.116413593292236,8.914473533630371,-41.65856170654297,0.5367302894592285,7.556615829467773,13.60561847686768,63794.78502137501,-0.030059814453125,-0.0663909912109375,-0.930938720703125,63794.78502137501,0.4158115983009338,0.29367795586586,-0.1179580613970757,63794.78973137501,3.8751220703125,2.63543701171875,-30.63722229003906,63794.76385437501,-0.7033266495753692,-0.05131361149244222,0.07304508733522706,0.3345407843589783,0.04731281101703644,-0.02402398176491261,0.02422257885336876,0.008740633726119995,0.03853166103363037,2,0.02543762258005711,-0.03664154315942352,-0.3449962128117949,0.9375436107025312,-0.05115432292222977,-0.07298015058040619,-0.9960206747055054,-5.095162391662598,9.029008865356445,-41.56602478027344,-1,2,63791.57726950001,1,2,1615614817.859861,1615611623.065331,2877,0.8998966,0,0,1976.718,3,8,1615614665.185486,63792.312565,0,-2.098007,99.48206,1615614820.284273,1681917671,1682799177,0,1615614820.704035,1,1615614819.262071,1,0.13,1615611989.648667,-120,-120,0
1615614821.122615,55,0,0,0,0,0,0,0,0,0,1615614821.102972,-4.737032890319824,8.112585067749023,-41.90041351318359,0.8187732696533203,7.838658809661865,13.60633277893066,63794.81863937501,-0.02642822265625,-0.105743408203125,-0.992889404296875,63794.81863937501,0.3244380056858063,0.2113505899906158,-0.1606346815824509,63794.78973137501,3.8751220703125,2.63543701171875,-30.63722229003906,63794.76385437501,-0.7033266495753692,-0.05131361149244222,0.07304508733522706,0.3345407843589783,0.04731281101703644,-0.02402398176491261,0.02422257885336876,0.008740633726119995,0.03853166103363037,2,0.02543762258005711,-0.03664154315942352,-0.3449962128117949,0.9375436107025312,-0.05115432292222977,-0.07298015058040619,-0.9960206747055054,-5.095162391662598,9.029008865356445,-41.56602478027344,-1,2,63791.57726950001,1,2,1615614817.859861,1615611623.065331,2877,0.8998966,0,0,1976.718,3,8,1615614665.185486,63792.312565,0,-2.098007,99.48206,1615614820.284273,1681917671,1682799177,0,1615614820.704035,1,1615614819.262071,1,0.13,1615611989.648667,-120,-120,0
1615614821.132724,56,0,0,0,0,0,0,0,0,0,1615614821.122627,-4.470014095306396,7.750112533569336,-42.03652954101562,0.9836926460266113,8.003578186035156,13.606689453125,63794.852257375,-0.0114898681640625,-0.1377716064453125,-1.028793334960938,63794.852257375,0.2594190537929535,-0.2595279812812805,-0.1246479228138924,63794.849726375,4.625717163085938,1.471542358398438,-30.89453125,63794.82362037501,-0.7095853622996964,-0.03651076909990963,0.0952721927537514,0.2948043346405029,0.1643754839897156,-0.1575346887111664,0.01184678822755814,-0.02022832632064819,-0.004969477653503418,2,0.03831061688302405,-0.03363761636873548,-0.3477591632431043,0.9361967741210028,-0.03633711859583855,-0.095128133893013,-0.9948016405105591,-4.625942707061768,7.917017459869385,-42.01297760009766,-1,2,63791.57726950001,1,2,1615614817.859861,1615611623.065331,2877,0.8998966,0,0,1976.718,3,8,1615614665.185486,63792.312565,0,-2.098007,99.48206,1615614820.284273,1681917671,1682799177,0,1615614820.704035,1,1615614819.262071,1,0.13,1615611989.648667,-120,-120,0
1615614821.18151,57,0,0,0,0,0,0,0,0,0,1615614821.162596,-4.491089820861816,7.154819965362549,-41.73311614990234,1.2276930809021,8.247578620910645,13.60740375518799,63794.885876375,-0.0221405029296875,-0.146392822265625,-1.008377075195312,63794.852257375,0.2594190537929535,-0.2595279812812805,-0.1246479228138924,63794.849726375,4.625717163085938,1.471542358398438,-30.89453125,63794.82362037501,-0.7095853622996964,-0.03651076909990963,0.0952721927537514,0.2948043346405029,0.1643754839897156,-0.1575346887111664,0.01184678822755814,-0.02022832632064819,-0.004969477653503418,2,0.03831061688302405,-0.03363761636873548,-0.3477591632431043,0.9361967741210028,-0.03633711859583855,-0.095128133893013,-0.9948016405105591,-4.625942707061768,7.917017459869385,-42.01297760009766,-1,2,63791.57726950001,1,2,1615614817.859861,1615611623.065331,2877,0.8998966,0,0,1976.718,3,8,1615614665.185486,63792.312565,0,-2.098007,99.48206,1615614820.284273,1681917671,1682799177,0,1615614820.704035,1,1615614819.262071,1,0.13,1615611989.648667,-120,-120,0
1615614821.202461,58,0,0,0,0,0,0,0,0,0,1615614821.182551,-4.983191013336182,6.845384120941162,-41.96869659423828,1.318130016326904,8.338015556335449,13.60776042938232,63794.919494375,-0.0445556640625,-0.1540069580078125,-0.9872894287109375,63794.919494375,0.3973359167575836,-0.5030780434608459,-0.10878986120224,63794.90971837501,3.605484008789062,0.7048492431640625,-30.98416137695312,63794.883386375,-0.7164020831285438,-0.05229504315640946,0.1114565968664566,0.3007187843322754,-0.6575748324394226,-0.09752961993217468,0.02814318984746933,-0.03570090979337692,-0.009791254997253418,2,0.04299454204953541,-0.0439681113189223,-0.3512899166330345,0.9342449652560678,-0.05194687470793724,-0.1112259775400162,-0.9924365282058716,-4.744475364685059,7.0202956199646,-41.80047607421875,-1,2,63791.57726950001,1,2,1615614817.859861,1615611623.065331,2877,0.8998966,0,0,1976.718,3,8,1615614665.185486,63792.312565,0,-2.098007,99.48206,1615614820.284273,1681917671,1682799177,0,1615614820.704035,1,1615614819.262071,1,0.13,1615611989.648667,-120,-120,0
1615614821.241809,59,0,0,0,0,0,0,0,0,0,1615614821.222578,-6.136315822601318,6.232863903045654,-42.10361480712891,1.520122051239014,8.540007591247559,13.608473777771,63794.95311337501,-0.0830535888671875,-0.1681365966796875,-0.970489501953125,63794.95311337501,0.2954779863357544,0.09587166458368301,-0.1492763012647629,63794.90971837501,3.605484008789062,0.7048492431640625,-30.98416137695312,63794.943152375,-0.7217484153301313,-0.08132466406023392,0.1332555642813258,0.3263567984104156,-0.05364227294921875,-0.1602350324392319,-0.001256957650184631,-0.03135354816913605,0.02045166492462158,2,0.04791683647171033,-0.06143726096565241,-0.3545497668559868,0.9317853274262038,-0.08051487058401108,-0.132861539721489,-0.9878588914871216,-6.333521842956543,6.08345365524292,-42.20381927490234,-1,2,63791.57726950001,1,2,1615614817.859861,1615611623.065331,2877,0.8998966,0,0,1976.718,3,8,1615614665.185486,63792.312565,0,-2.098007,99.48206,1615614820.284273,1681917671,1682799177,0,1615614820.704035,1,1615614819.262071,1,0.13,1615611989.648667,-120,-120,0
1615614821.272073,60,0,0,0,0,0,0,0,0,0,1615614821.262417,-6.548786163330078,5.451121807098389,-42.00517272949219,1.720065593719482,8.739951133728027,13.60918617248535,63794.98673037501,-0.0882568359375,-0.1905059814453125,-1.019927978515625,63794.98673037501,0.03746828064322472,0.1344803124666214,0.1158802658319473,63794.969702375,2.374298095703125,-0.40118408203125,-30.98713684082031,63794.943152375,-0.7217484153301313,-0.08132466406023392,0.1332555642813258,0.3263567984104156,-0.05364227294921875,-0.1602350324392319,-0.001256957650184631,-0.03135354816913605,0.02045166492462158,2,0.04791683647171033,-0.06143726096565241,-0.3545497668559868,0.9317853274262038,-0.08051487058401108,-0.132861539721489,-0.9878588914871216,-6.333521842956543,6.08345365524292,-42.20381927490234,-1,2,63791.57726950001,1,2,1615614817.859861,1615611623.065331,2877,0.8998966,0,0,1976.718,3,8,1615614665.185486,63792.312565,0,-2.098007,99.48206,1615614820.284273,1681917671,1682799177,0,1615614820.704035,1,1615614819.262071,1,0.13,1615611989.648667,-120,-120,0
1615614821.301761,61,0,0,0,0,0,0,0,0,0,1615614821.282378,-6.358824729919434,5.197799205780029,-42.13658905029297,1.565130710601807,8.585016250610352,13.60954189300537,63795.020348375,-0.05865478515625,-0.17767333984375,-0.9463653564453125,63795.020348375,0.05789259448647499,-0.218588262796402,0.2963160872459412,63794.969702375,2.374298095703125,-0.40118408203125,-30.98713684082031,63795.002917375,-0.7205768006565827,-0.07539886349204918,0.141223564565559,-0.09258365631103516,-0.1148848831653595,0.2889933288097382,0.001136988401412964,-0.04268656671047211,-0.01768165826797485,2,0.05272190399982987,-0.06003811656728655,-0.3539041915403608,0.9318624084692677,-0.07457752525806427,-0.1407546103000641,-0.9872316718101501,-6.290167808532715,5.203134059906006,-42.18217468261719,-1,2,63791.57726950001,1,2,1615614817.859861,1615611623.065331,2877,0.8998966,0,0,1976.718,3,8,1615614665.185486,63792.312565,0,-2.098007,99.48206,1615614820.284273,1681917671,1682799177,0,1615614820.704035,1,1615614819.262071,1,0.13,1615611989.648667,-120,-120,0
1615614821.359299,62,0,0,0,0,0,0,0,0,0,1615614821.342063,-6.416432857513428,5.114994049072266,-41.859130859375,0.8747987747192383,7.894684314727783,13.61061000823975,63795.053967375,-0.0888671875,-0.185272216796875,-1.0308837890625,63795.053967375,0.02277189120650291,0.1013718917965889,0.01739257201552391,63795.02969437501,2.705123901367188,-0.792633056640625,-30.90713500976562,63795.002917375,-0.7205768006565827,-0.07539886349204918,0.141223564565559,-0.09258365631103516,-0.1148848831653595,0.2889933288097382,0.001136988401412964,-0.04268656671047211,-0.01768165826797485,2,0.05272190399982987,-0.06003811656728655,-0.3539041915403608,0.9318624084692677,-0.07457752525806427,-0.1407546103000641,-0.9872316718101501,-6.290167808532715,5.203134059906006,-42.18217468261719,-1,2,63791.57726950001,1,2,1615614817.859861,1615611623.065331,2877,0.8998966,0,0,1976.718,3,8,1615614665.185486,63792.312565,0,-2.098007,99.48206,1615614820.284273,1681917671,1682799177,0,1615614820.704035,1,1615614819.262071,1,0.13,1615611989.648667,-120,-120,0
1615614821.371649,63,0,0,0,0,0,0,0,0,0,1615614821.362148,-6.523361206054688,5.218746185302734,-42.11746215820312,0.9663867950439453,7.98627233505249,13.61096668243408,63795.087585375,-0.0772857666015625,-0.1020355224609375,-0.9813690185546875,63795.087585375,-0.02116494067013264,0.1804374158382416,-0.1994316130876541,63795.089683375,2.580718994140625,-0.774444580078125,-30.78945922851562,63795.06268337501,-0.7099597458865563,-0.0825893193416527,0.1423277860971664,-0.033797238022089,0.219456672668457,-0.04048141092061996,0.002758130431175232,-0.02554118633270264,0.0133851170539856,2,0.0523014784866029,-0.06330369987923275,-0.3491485630731724,0.9334626539621977,-0.08166130632162094,-0.1418477445840836,-0.9865143895149231,-6.502636909484863,5.124320983886719,-42.14564514160156,-1,2,63791.57726950001,1,2,1615614817.859861,1615611623.065331,2877,0.8998966,0,0,1976.718,3,8,1615614665.185486,63792.312565,0,-2.098007,99.48206,1615614820.284273,1681917671,1682799177,0,1615614820.704035,1,1615614819.262071,1,0.13,1615611989.648667,-120,-120,0
1615614821.407303,64,0,0,0,0,0,0,0,0,0,1615614821.382328,-6.299365043640137,5.145900249481201,-41.75354766845703,1.190618991851807,8.210504531860352,13.6113224029541,63795.12120337501,-0.04754638671875,-0.1450042724609375,-0.992218017578125,63795.12120337501,0.3653731942176819,-0.1243629604578018,-0.2391201704740524,63795.089683375,2.580718994140625,-0.774444580078125,-30.78945922851562,63795.06268337501,-0.7099597458865563,-0.0825893193416527,0.1423277860971664,-0.033797238022089,0.219456672668457,-0.04048141092061996,0.002758130431175232,-0.02554118633270264,0.0133851170539856,2,0.0523014784866029,-0.06330369987923275,-0.3491485630731724,0.9334626539621977,-0.08166130632162094,-0.1418477445840836,-0.9865143895149231,-6.502636909484863,5.124320983886719,-42.14564514160156,-1,2,63791.57726950001,1,2,1615614817.859861,1615611623.065331,2877,0.8998966,0,0,1976.718,3,8,1615614665.185486,63792.312565,0,-2.098007,99.48206,1615614820.284273,1681917671,1682799177,0,1615614820.704035,1,1615614819.262071,1,0.13,1615611989.648667,-120,-120,0
1615614821.441251,65,0,0,0,0,0,0,0,0,0,1615614821.421551,-6.110134124755859,4.683168888092041,-41.01933288574219,1.710218906402588,8.730104446411133,13.61177444458008,63795.15482237501,-0.046539306640625,-0.1666412353515625,-0.96173095703125,63795.15482237501,0.7905353903770447,-0.122787706553936,-0.4693334102630615,63795.149675375,2.692138671875,-1.506561279296875,-30.17124938964844,63795.12244937501,-0.7208205613864471,-0.07531112461598442,0.1468306670124941,0.3721781373023987,-0.1346403658390045,-0.240779235959053,0.03254500031471252,-0.009336009621620178,0.00132828950881958,2,0.05534756978781219,-0.06098199708686209,-0.3540428891519557,0.9315960747974793,-0.07443035393953323,-0.1463036388158798,-0.9864357113838196,-6.084145069122314,4.847956657409668,-41.09210968017578,-1,2,63791.57726950001,1,2,1615614817.859861,1615611623.065331,2877,0.8998966,0,0,1976.718,3,8,1615614665.185486,63792.312565,0,-2.098007,99.48206,1615614820.284273,1681917671,1682799177,0,1615614820.704035,1,1615614819.262071,1,0.13,1615611989.648667,-120,-120,0
1615614821.483561,66,0,0,0,0,0,0,0,0,0,1615614821.481442,-6.57240629196167,2.584816217422485,-41.38747406005859,3.801981449127197,10.82186698913574,13.61284065246582,63795.188440375,-0.1068878173828125,-0.2277984619140625,-0.9538116455078125,63795.188440375,0.9889475703239441,-0.1683101803064346,-0.6444218754768372,63795.149675375,2.692138671875,-1.506561279296875,-30.17124938964844,63795.12244937501,-0.7208205613864471,-0.07531112461598442,0.1468306670124941,0.3721781373023987,-0.1346403658390045,-0.240779235959053,0.03254500031471252,-0.009336009621620178,0.00132828950881958,2,0.05534756978781219,-0.06098199708686209,-0.3540428891519557,0.9315960747974793,-0.07443035393953323,-0.1463036388158798,-0.9864357113838196,-6.084145069122314,4.847956657409668,-41.09210968017578,-1,2,63791.57726950001,1,2,1615614817.859861,1615611623.065331,2877,0.8998966,0,0,1976.718,3,8,1615614665.185486,63792.312565,0,-2.098007,99.48206,1615614820.284273,1681917671,1682799177,0,1615614820.704035,1,1615614819.262071,1,0.13,1615611989.648667,-120,-120,0
1615614821.511043,67,0,0,0,0,0,0,0,0,0,1615614821.50152,-6.953666687011719,1.707706928253174,-41.849365234375,4.459354877471924,11.47924041748047,13.61319637298584,63795.222058375,-0.0842742919921875,-0.227264404296875,-0.9425048828125,63795.222058375,0.9455723762512207,-0.0713902935385704,-0.5719189047813416,63795.209673375,2.14544677734375,-4.0166015625,-30.61982727050781,63795.182215375,-0.7440133431206911,-0.08005621969473969,0.1921316589067798,0.9636747241020203,-0.1922386586666107,-0.6344215273857117,-0.02951771020889282,-0.03902868926525116,0.02736002206802368,2,0.07480705677753319,-0.07194527065807452,-0.3650956745593618,0.9251663820178861,-0.07849922776222229,-0.1909517645835876,-0.9784555435180664,-6.525378227233887,3.084450721740723,-41.25470733642578,-1,2,63791.57726950001,1,2,1615614817.859861,1615611623.065331,2877,0.8998966,0,0,1976.718,3,8,1615614665.185486,63792.312565,0,-2.098007,99.48206,1615614820.284273,1681917671,1682799177,0,1615614820.704035,1,1615614819.262071,1,0.13,1615611989.648667,-120,-120,0
1615614821.542295,68,0,0,0,0,0,0,0,0,0,1615614821.541593,-7.197025299072266,-0.2111115455627441,-42.74804306030273,5.512443065643311,12.53232860565186,13.61390686035156,63795.255676375,-0.0989532470703125,-0.207611083984375,-0.982513427734375,63795.255676375,0.4508670568466187,0.1904277354478836,-0.3358597755432129,63795.209673375,2.14544677734375,-4.0166015625,-30.61982727050781,63795.241980375,-0.7753693337404254,-0.07843267846954019,0.2505292120612013,0.7409999966621399,0.1024942547082901,-0.4927156865596771,-0.01407481729984283,0.05106306076049805,-0.005434095859527588,2,0.1008707048874774,-0.08320797168339422,-0.3793302050797178,0.9159750147777717,-0.07590623944997787,-0.2479166835546494,-0.9658030867576599,-7.168638229370117,0.1679015159606934,-42.62755584716797,-1,2,63791.57726950001,1,2,1615614817.859861,1615611623.065331,2877,0.8998966,0,0,1976.718,3,8,1615614665.185486,63792.312565,0,-2.098007,99.48206,1615614820.284273,1681917671,1682799177,0,1615614820.704035,1,1615614819.262071,1,0.13,1615611989.648667,-120,-120,0
1615614821.570935,69,0,0,0,0,0,0,0,0,0,1615614821.56107,-7.039938926696777,-0.9913687705993652,-42.40723419189453,5.6595139503479,12.67939949035645,13.61426258087158,63795.289294375,-0.094818115234375,-0.2323150634765625,-0.94561767578125,63795.289294375,-0.3297062516212463,0.4854977130889893,0.1344206631183624,63795.269660375,1.84332275390625,-6.806655883789062,-31.48747253417969,63795.241980375,-0.7753693337404254,-0.07843267846954019,0.2505292120612013,0.7409999966621399,0.1024942547082901,-0.4927156865596771,-0.01407481729984283,0.05106306076049805,-0.005434095859527588,2,0.1008707048874774,-0.08320797168339422,-0.3793302050797178,0.9159750147777717,-0.07590623944997787,-0.2479166835546494,-0.9658030867576599,-7.168638229370117,0.1679015159606934,-42.62755584716797,-1,2,63791.57726950001,1,2,1615614817.859861,1615611623.065331,2877,0.8998966,0,0,1976.718,3,8,1615614665.185486,63792.312565,0,-2.098007,99.48206,1615614820.284273,1681917671,1682799177,0,1615614820.704035,1,1615614819.262071,1,0.13,1615611989.648667,-120,-120,0
1615614821.610429,70,0,0,0,0,0,0,0,0,0,1615614821.600998,-6.436408042907715,-0.8988327980041504,-42.82504272460938,5.224867343902588,12.24475288391113,13.61497211456299,63795.32291337501,-0.079498291015625,-0.2041778564453125,-0.9749755859375,63795.32291337501,-0.5164620280265808,0.67499840259552,0.02642654813826084,63795.329651375,2.869461059570312,-6.532562255859375,-31.696533203125,63795.30174637501,-0.7816571232685057,-0.05749118482733076,0.2544144537264315,-0.4901005029678345,0.6121628880500793,0.1884190440177917,-0.01364967226982117,0.03553801774978638,0.02233368158340454,2,0.1063888174510946,-0.07466925793517523,-0.3810917960149963,0.9153549932500838,-0.05560994520783424,-0.2516787648200989,-0.9662118554115295,-6.611650466918945,-1.04509973526001,-42.90830993652344,-1,2,63791.57726950001,1,2,1615614817.859861,1615611623.065331,2877,0.8998966,0,0,1976.718,3,8,1615614665.185486,63792.312565,0,-2.098007,99.48206,1615614820.284273,1681917671,1682799177,0,1615614820.704035,1,1615614819.262071,1,0.13,1615611989.648667,-120,-120,0
1615614821.640541,71,0,0,0,0,0,0,0,0,0,1615614821.62077,-5.913507461547852,-0.3320412635803223,-42.84679794311523,5.167954921722412,12.18784046173096,13.61532783508301,63795.356531375,-0.1386566162109375,-0.1448974609375,-0.9659271240234375,63795.356531375,-0.1526848822832108,0.7133098244667053,-0.4152307510375977,63795.329651375,2.869461059570312,-6.532562255859375,-31.696533203125,63795.30174637501,-0.7816571232685057,-0.05749118482733076,0.2544144537264315,-0.4901005029678345,0.6121628880500793,0.1884190440177917,-0.01364967226982117,0.03553801774978638,0.02233368158340454,2,0.1063888174510946,-0.07466925793517523,-0.3810917960149963,0.9153549932500838,-0.05560994520783424,-0.2516787648200989,-0.9662118554115295,-6.611650466918945,-1.04509973526001,-42.90830993652344,-1,2,63791.57726950001,1,2,1615614817.859861,1615611623.065331,2877,0.8998966,0,0,1976.718,3,8,1615614665.185486,63792.312565,0,-2.098007,99.48206,1615614820.284273,1681917671,1682799177,0,1615614820.704035,1,1615614819.262071,1,0.13,1615611989.648667,-120,-120,0
1615614821.670419,72,0,0,0,0,0,0,0,0,0,1615614821.660548,-4.892341136932373,0.615847110748291,-43.50336837768555,5.842471599578857,12.8623571395874,13.61603736877441,63795.390149375,-0.0607452392578125,-0.1595001220703125,-0.9314422607421875,63795.390149375,0.3765240907669067,0.7899274230003357,-0.3781499564647675,63795.389637375,4.463699340820312,-5.211288452148438,-32.48294067382812,63795.36151237501,-0.7887831778575347,-0.01662643973359789,0.2298553635094117,-0.08305855095386505,0.7523384690284729,-0.4620271921157837,-0.1078807860612869,0.1210709512233734,0.03342503309249878,2,0.1026944409150303,-0.05168618699864066,-0.382578633942936,0.9167420853148326,-0.01618840731680393,-0.2278366982936859,-0.9735648036003113,-5.084308624267578,0.332120418548584,-43.08002853393555,-1,2,63791.57726950001,1,2,1615614817.859861,1615611623.065331,2877,0.8998966,0,0,1976.718,3,8,1615614665.185486,63792.312565,0,-2.098007,99.48206,1615614820.284273,1681917671,1682799177,0,1615614820.704035,1,1615614819.262071,1,0.13,1615611989.648667,-120,-120,0
1615614821.722212,73,0,0,0,0,0,0,0,0,0,1615614821.720371,-3.367270469665527,-0.02776622772216797,-44.0185661315918,6.259793758392334,13.27967929840088,13.61710166931152,63795.423768375,0.069671630859375,-0.3334808349609375,-1.031890869140625,63795.390149375,0.3765240907669067,0.7899274230003357,-0.3781499564647675,63795.389637375,4.463699340820312,-5.211288452148438,-32.48294067382812,63795.36151237501,-0.7887831778575347,-0.01662643973359789,0.2298553635094117,-0.08305855095386505,0.7523384690284729,-0.4620271921157837,-0.1078807860612869,0.1210709512233734,0.03342503309249878,2,0.1026944409150303,-0.05168618699864066,-0.382578633942936,0.9167420853148326,-0.01618840731680393,-0.2278366982936859,-0.9735648036003113,-5.084308624267578,0.332120418548584,-43.08002853393555,-1,2,63791.57726950001,1,2,1615614817.859861,1615611623.065331,2877,0.8998966,0,0,1976.718,3,8,1615614665.185486,63792.312565,0,-2.098007,99.48206,1615614820.284273,1681917671,1682799177,0,1615614820.704035,1,1615614819.262071,1,0.13,1615611989.648667,-120,-120,0
1615614821.7403,74,0,0,0,0,0,0,0,0,0,1615614821.720371,-3.367270469665527,-0.02776622772216797,-44.0185661315918,6.259793758392334,13.27967929840088,13.61710166931152,63795.457386375,0.078765869140625,-0.2837677001953125,-0.9391326904296875,63795.457386375,0.8706067800521851,0.5524083375930786,-0.1788863986730576,63795.449627375,6.107711791992188,-6.902206420898438,-32.72537231445312,63795.421278375,-0.8081801833832076,0.02962644678594433,0.252133067755663,0.7961594462394714,0.3734777867794037,-0.007697895169258118,0.05352883785963058,-0.08452947437763214,-0.05895894765853882,2,0.1213716033566575,-0.03591893150453165,-0.3883068347019533,0.9127959562462964,0.02868553623557091,-0.2494701445102692,-0.9679575562477112,-3.6745285987854,0.3019132614135742,-43.95257568359375,-1,2,63791.57726950001,1,2,1615614817.859861,1615611623.065331,2877,0.8998966,0,0,1976.718,3,8,1615614665.185486,63792.312565,0,-2.098007,99.48206,1615614820.284273,1681917671,1682799177,0,1615614820.704035,1,1615614819.262071,1,0.13,1615611989.648667,-120,-120,0
1615614821.780812,75,0,0,0,0,0,0,0,0,0,1615614821.780257,-2.223709583282471,-2.301300048828125,-44.65023040771484,6.815636157989502,13.83552169799805,13.6181640625,63795.49100437501,0.0822601318359375,-0.2468719482421875,-0.9770965576171875,63795.49100437501,0.3543338477611542,0.2614646255970001,-0.3202254176139832,63795.449627375,6.107711791992188,-6.902206420898438,-32.72537231445312,63795.481043375,-0.8183880878116191,0.05993433567178108,0.3008616720974105,0.5482696890830994,0.4173817038536072,-0.3094660043716431,0.02694433182477951,0.05472037196159363,-0.02061712741851807,2,0.1492164963700119,-0.03242110053653006,-0.3890805033110901,0.9084600363000943,0.05720791220664978,-0.2963432967662811,-0.9533666372299194,-2.387929916381836,-1.879161834716797,-44.42509460449219,-1,2,63791.57726950001,1,2,1615614817.859861,1615611623.065331,2877,0.8998966,0,0,1976.718,3,8,1615614665.185486,63792.312565,0,-2.098007,99.48206,1615614820.284273,1681917671,1682799177,0,1615614820.704035,1,1615614819.262071,1,0.13,1615611989.648667,-120,-120,0
1615614821.810013,76,0,0,0,0,0,0,0,0,0,1615614821.800486,-1.805248737335205,-3.028449058532715,-44.64293670654297,7.107991695404053,14.1278772354126,13.6185188293457,63795.52462237501,0.081573486328125,-0.3271636962890625,-0.9831085205078125,63795.52462237501,-0.4416445195674896,0.02356578037142754,-0.1221834346652031,63795.50961637501,7.229278564453125,-9.137649536132812,-33.50450134277344,63795.481043375,-0.8183880878116191,0.05993433567178108,0.3008616720974105,0.5482696890830994,0.4173817038536072,-0.3094660043716431,0.02694433182477951,0.05472037196159363,-0.02061712741851807,2,0.1492164963700119,-0.03242110053653006,-0.3890805033110901,0.9084600363000943,0.05720791220664978,-0.2963432967662811,-0.9533666372299194,-2.387929916381836,-1.879161834716797,-44.42509460449219,-1,2,63791.57726950001,1,2,1615614817.859861,1615611623.065331,2877,0.8998966,0,0,1976.718,3,8,1615614665.185486,63792.312565,0,-2.098007,99.48206,1615614820.284273,1681917671,1682799177,0,1615614820.704035,1,1615614819.262071,1,0.13,1615611989.648667,-120,-120,0
1615614821.84408,77,0,0,0,0,0,0,0,0,0,1615614821.840196,-1.826936721801758,-3.163426399230957,-44.9399528503418,7.014004230499268,14.03388977050781,13.61922645568848,63795.558240375,0.109893798828125,-0.3275299072265625,-0.983062744140625,63795.558240375,-0.8758460283279419,0.5071249604225159,0.203601062297821,63795.50961637501,7.229278564453125,-9.137649536132812,-33.50450134277344,63795.540809375,-0.8305512296945147,0.07153115483404417,0.2930337576618164,-0.7777957916259766,0.3181205987930298,0.03273485228419304,0.03948663175106049,-0.02796021103858948,0.01212894916534424,2,0.147770824334856,-0.02649400631734591,-0.39408754630934,0.9067286108803253,0.06842353940010071,-0.2888579964637756,-0.954923689365387,-1.755894660949707,-3.370768547058105,-44.83588409423828,-1,2,63791.57726950001,1,2,1615614817.859861,1615611623.065331,2877,0.8998966,0,0,1976.718,3,8,1615614665.185486,63792.312565,0,-2.098007,99.48206,1615614820.284273,1681917671,1682799177,0,1615614820.704035,1,1615614819.262071,1,0.13,1615611989.648667,-120,-120,0
1615614821.879776,78,0,0,0,0,0,0,0,0,0,1615614821.86011,-1.791263580322266,-2.684081077575684,-44.84557342529297,6.56943941116333,13.58932495117188,13.61958122253418,63795.591859375,0.193634033203125,-0.319183349609375,-1.023818969726562,63795.591859375,-0.6551259160041809,0.5773168802261353,0.6212131977081299,63795.569611375,7.175491333007812,-8.540756225585938,-33.77740478515625,63795.540809375,-0.8305512296945147,0.07153115483404417,0.2930337576618164,-0.7777957916259766,0.3181205987930298,0.03273485228419304,0.03948663175106049,-0.02796021103858948,0.01212894916534424,2,0.147770824334856,-0.02649400631734591,-0.39408754630934,0.9067286108803253,0.06842353940010071,-0.2888579964637756,-0.954923689365387,-1.755894660949707,-3.370768547058105,-44.83588409423828,-1,2,63791.57726950001,1,2,1615614817.859861,1615611623.065331,2877,0.8998966,0,0,1976.718,3,8,1615614665.185486,63792.312565,0,-2.098007,99.48206,1615614820.284273,1681917671,1682799177,0,1615614820.704035,1,1615614819.262071,1,0.13,1615611989.648667,-120,-120,0
1615614821.909534,79,0,0,0,0,0,0,0,0,0,1615614821.899642,-1.189406871795654,-1.169523239135742,-44.98563385009766,4.814757823944092,11.83464336395264,13.62028980255127,63795.625477375,0.1087646484375,-0.2673797607421875,-0.9623565673828125,63795.591859375,-0.6551259160041809,0.5773168802261353,0.6212131977081299,63795.569611375,7.175491333007812,-8.540756225585938,-33.77740478515625,63795.60057537501,-0.8045685774320414,0.09698097790736981,0.2475714377725583,-0.5985934734344482,0.5136266946792603,0.7599980235099792,0.05289755016565323,-0.1171324551105499,-0.06142771244049072,2,0.1323119804980104,-0.004023560712223644,-0.382561808652283,0.9143980977300954,0.09387674927711487,-0.2450501620769501,-0.964954674243927,-1.409966945648193,-1.45911979675293,-45.03408050537109,-1,2,63791.57726950001,1,2,1615614817.859861,1615611623.065331,2877,0.8998966,0,0,1976.718,3,8,1615614665.185486,63792.312565,0,-2.098007,99.48206,1615614820.284273,1681917671,1682799177,0,1615614820.704035,1,1615614819.262071,1,0.13,1615611989.648667,-120,-120,0
1615614821.939973,80,0,0,0,0,0,0,0,0,0,1615614821.920015,-0.7096672058105469,-0.6333222389221191,-45.00973129272461,3.722859859466553,10.7427453994751,13.62064266204834,63795.659095875,0.1142425537109375,-0.1875762939453125,-1.024398803710938,63795.659095875,-0.3159350454807281,0.344892144203186,0.4798955023288727,63795.629600375,8.357833862304688,-6.517822265625,-33.92155456542969,63795.60057537501,-0.8045685774320414,0.09698097790736981,0.2475714377725583,-0.5985934734344482,0.5136266946792603,0.7599980235099792,0.05289755016565323,-0.1171324551105499,-0.06142771244049072,2,0.1323119804980104,-0.004023560712223644,-0.382561808652283,0.9143980977300954,0.09387674927711487,-0.2450501620769501,-0.964954674243927,-1.409966945648193,-1.45911979675293,-45.03408050537109,-1,2,63791.57726950001,1,2,1615614817.859861,1615611623.065331,2877,0.8998966,0,0,1976.718,3,8,1615614665.185486,63792.312565,0,-2.098007,99.48206,1615614820.284273,1681917671,1682799177,0,1615614820.704035,1,1615614819.262071,1,0.13,1615611989.648667,-120,-120,0
1615614821.979555,81,0,0,0,0,0,0,0,0,0,1615614821.959513,0.3433599472045898,0.2949185371398926,-45.17175674438477,2.312743663787842,9.332629203796387,13.62135124206543,63795.692713875,0.1068115234375,-0.1969451904296875,-0.9808807373046875,63795.692713875,-0.1158168837428093,0.3026557266712189,0.1536755859851837,63795.689596875,9.843597412109375,-5.35491943359375,-34.17984008789062,63795.660341875,-0.7546338704154301,0.1173043661249817,0.2231426548300663,-0.3150768876075745,0.336030900478363,0.4670169055461884,0.05145453661680222,0.07294951379299164,-0.06018155813217163,2,0.1247923675664087,0.01320612157959051,-0.3594396432081443,0.924692194627033,0.1141338422894478,-0.2212954461574554,-0.9685049057006836,0.09385871887207031,0.1527423858642578,-45.15606689453125,-1,2,63791.57726950001,1,2,1615614817.859861,1615611623.065331,2877,0.8998966,0,0,1976.718,3,8,1615614665.185486,63793.256572,0,-2.158783,99.48276,1615614820.284273,1681917671,1682799177,0,1615614820.704035,1,1615614819.262071,1,0.13,1615611989.648667,-120,-120,0
1615614822.229051,82,0,0,0,0,0,0,0,0,0,1615614822.218699,2.828818321228027,-4.023518562316895,-44.80215454101562,1.229214191436768,8.249099731445312,13.62593936920166,63795.726331875,0.0704345703125,-0.2157135009765625,-1.00274658203125,63795.692713875,-0.1158168837428093,0.3026557266712189,0.1536755859851837,63795.689596875,9.843597412109375,-5.35491943359375,-34.17984008789062,63795.660341875,-0.7546338704154301,0.1173043661249817,0.2231426548300663,-0.3150768876075745,0.336030900478363,0.4670169055461884,0.05145453661680222,0.07294951379299164,-0.06018155813217163,2,0.1247923675664087,0.01320612157959051,-0.3594396432081443,0.924692194627033,0.1141338422894478,-0.2212954461574554,-0.9685049057006836,0.09385871887207031,0.1527423858642578,-45.15606689453125,-1,2,63791.57726950001,1,2,1615614817.859861,1615611623.065331,2877,0.8998966,0,0,1976.718,3,8,1615614665.185486,63793.256572,0,-2.158783,99.48276,1615614820.284273,1681917671,1682799177,0,1615614822.016627,1,1615614819.262071,1,0.13,1615611989.648667,-120,-120,0
1615614822.231717,83,0,0,0,0,0,0,0,0,0,1615614822.218699,2.828818321228027,-4.023518562316895,-44.80215454101562,1.229214191436768,8.249099731445312,13.62593936920166,63795.75995087501,0.123779296875,-0.18231201171875,-0.9465179443359375,63795.75995087501,0.5936449766159058,0.4086953699588776,-0.1354555636644363,63795.74958787501,10.80415344238281,-5.400497436523438,-33.49382019042969,63795.72010687501,-0.7416210331037874,0.1324154017076337,0.2159756901341036,0.004951717332005501,0.2687897086143494,-0.01723446510732174,-0.06196010112762451,-0.001596048474311829,-0.04284560680389404,2,0.1240673261232493,0.02233348202729148,-0.3528249647305664,0.9271585841100427,0.1289614588022232,-0.2143005579710007,-0.9682170152664185,1.273519515991211,0.8915157318115234,-45.58497619628906,-1,2,63791.57726950001,1,2,1615614817.859861,1615611623.065331,2877,0.8998966,0,0,1976.718,3,8,1615614665.185486,63793.256572,0,-2.158783,99.48276,1615614820.284273,1681917671,1682799177,0,1615614822.016627,1,1615614819.262071,1,0.13,1615611989.648667,-120,-120,0
1615614822.231985,84,0,0,0,0,0,0,0,0,0,1615614822.218699,2.828818321228027,-4.023518562316895,-44.80215454101562,1.229214191436768,8.249099731445312,13.62593936920166,63795.793568875,0.2062225341796875,-0.357269287109375,-0.907440185546875,63795.793568875,0.7616443634033203,0.6169974207878113,0.264464944601059,63795.74958787501,10.80415344238281,-5.400497436523438,-33.49382019042969,63795.77987287501,-0.7514418451345956,0.1544415953648289,0.2405293016907715,0.7380768060684204,0.6139344573020935,0.09637582302093506,0.07397346198558807,-0.09381450712680817,0.05756795406341553,2,0.139376338245825,0.0273516068878556,-0.3545974554224559,0.9241681464325814,0.1493999511003494,-0.2382167279720306,-0.9596522450447083,1.980434417724609,0.3013348579406738,-45.24301528930664,-1,2,63791.57726950001,1,2,1615614817.859861,1615611623.065331,2877,0.8998966,0,0,1976.718,3,8,1615614665.185486,63793.256572,0,-2.158783,99.48276,1615614820.284273,1681917671,1682799177,0,1615614822.016627,1,1615614819.262071,1,0.13,1615611989.648667,-120,-120,0
1615614822.232223,85,0,0,0,0,0,0,0,0,0,1615614822.218699,2.828818321228027,-4.023518562316895,-44.80215454101562,1.229214191436768,8.249099731445312,13.62593936920166,63795.827186875,0.1713104248046875,-0.2916259765625,-0.963134765625,63795.827186875,0.5387516021728516,0.1884261071681976,0.3092353343963623,63795.809582875,11.82493591308594,-6.744461059570312,-34.22738647460938,63795.77987287501,-0.7514418451345956,0.1544415953648289,0.2405293016907715,0.7380768060684204,0.6139344573020935,0.09637582302093506,0.07397346198558807,-0.09381450712680817,0.05756795406341553,2,0.139376338245825,0.0273516068878556,-0.3545974554224559,0.9241681464325814,0.1493999511003494,-0.2382167279720306,-0.9596522450447083,1.980434417724609,0.3013348579406738,-45.24301528930664,-1,2,63791.57726950001,1,2,1615614817.859861,1615611623.065331,2877,0.8998966,0,0,1976.718,3,8,1615614665.185486,63793.256572,0,-2.158783,99.48276,1615614820.284273,1681917671,1682799177,0,1615614822.016627,1,1615614819.262071,1,0.13,1615611989.648667,-120,-120,0
1615614822.232448,86,0,0,0,0,0,0,0,0,0,1615614822.218699,2.828818321228027,-4.023518562316895,-44.80215454101562,1.229214191436768,8.249099731445312,13.62593936920166,63795.860805875,0.16241455078125,-0.25103759765625,-0.9498138427734375,63795.860805875,0.4585332274436951,-0.1623228639364243,0.1016688346862793,63795.809582875,11.82493591308594,-6.744461059570312,-34.22738647460938,63795.839638875,-0.740486178031014,0.1752112065012017,0.2811293633965886,0.4671034812927246,0.03987137600779533,0.2395468801259995,-0.01285563409328461,0.0225275456905365,-0.0045585036277771,2,0.1614545740959391,0.03026002347678797,-0.3454718417551522,0.9239404540929332,0.1674729436635971,-0.2774408459663391,-0.9460334777832031,3.493631362915039,-1.775399208068848,-44.8543586730957,-1,2,63791.57726950001,1,2,1615614817.859861,1615611623.065331,2877,0.8998966,0,0,1976.718,3,8,1615614665.185486,63793.256572,0,-2.158783,99.48276,1615614820.284273,1681917671,1682799177,0,1615614822.016627,1,1615614819.262071,1,0.13,1615611989.648667,-120,-120,0
1615614822.232674,87,0,0,0,0,0,0,0,0,0,1615614822.218699,2.828818321228027,-4.023518562316895,-44.80215454101562,1.229214191436768,8.249099731445312,13.62593936920166,63795.894423875,0.141815185546875,-0.3344268798828125,-0.93975830078125,63795.894423875,0.5496413111686707,-0.4171218574047089,0.02644146047532558,63795.869574875,12.62924194335938,-8.65289306640625,-33.86160278320312,63795.839638875,-0.740486178031014,0.1752112065012017,0.2811293633965886,0.4671034812927246,0.03987137600779533,0.2395468801259995,-0.01285563409328461,0.0225275456905365,-0.0045585036277771,2,0.1614545740959391,0.03026002347678797,-0.3454718417551522,0.9239404540929332,0.1674729436635971,-0.2774408459663391,-0.9460334777832031,3.493631362915039,-1.775399208068848,-44.8543586730957,-1,2,63791.57726950001,1,2,1615614817.859861,1615611623.065331,2877,0.8998966,0,0,1976.718,3,8,1615614665.185486,63793.256572,0,-2.158783,99.48276,1615614820.284273,1681917671,1682799177,0,1615614822.016627,1,1615614819.262071,1,0.13,1615611989.648667,-120,-120,0
1615614822.232906,88,0,0,0,0,0,0,0,0,0,1615614822.218699,2.828818321228027,-4.023518562316895,-44.80215454101562,1.229214191436768,8.249099731445312,13.62593936920166,63795.92804087501,0.1391143798828125,-0.454437255859375,-0.8550567626953125,63795.92804087501,0.358381062746048,-0.01279515773057938,0.04012797772884369,63795.899575875,12.32237243652344,-9.2589111328125,-33.92991638183594,63795.899404875,-0.7399409461519079,0.1611731610157438,0.3102519184694584,0.5404810309410095,-0.4181540906429291,0.02425939403474331,-0.0203377902507782,-0.08616569638252258,0.03474855422973633,2,0.1723410445627852,0.01846574749134061,-0.3444906141204531,0.9226504671886302,0.1528146117925644,-0.3052985370159149,-0.9399151802062988,3.410741806030273,-3.214934349060059,-45.00903701782227,-1,2,63791.57726950001,1,2,1615614817.859861,1615611623.065331,2877,0.8998966,0,0,1976.718,3,8,1615614665.185486,63793.256572,0,-2.158783,99.48276,1615614820.284273,1681917671,1682799177,0,1615614822.016627,1,1615614819.262071,1,0.13,1615611989.648667,-120,-120,0
1615614822.247885,89,0,0,0,0,0,0,0,0,0,1615614822.238522,2.575409889221191,-4.514345169067383,-44.44549942016602,1.171459674835205,8.19134521484375,13.62629222869873,63795.96165987501,0.1157989501953125,-0.2783355712890625,-0.9941253662109375,63795.92804087501,0.358381062746048,-0.01279515773057938,0.04012797772884369,63795.959582875,11.27871704101562,-10.38360595703125,-34.26982116699219,63795.899404875,-0.7399409461519079,0.1611731610157438,0.3102519184694584,0.5404810309410095,-0.4181540906429291,0.02425939403474331,-0.0203377902507782,-0.08616569638252258,0.03474855422973633,2,0.1723410445627852,0.01846574749134061,-0.3444906141204531,0.9226504671886302,0.1528146117925644,-0.3052985370159149,-0.9399151802062988,3.410741806030273,-3.214934349060059,-45.00903701782227,-1,2,63791.57726950001,1,2,1615614817.859861,1615611623.065331,2877,0.8998966,0,0,1976.718,3,8,1615614665.185486,63793.256572,0,-2.158783,99.48276,1615614820.284273,1681917671,1682799177,0,1615614822.016627,1,1615614819.262071,1,0.13,1615611989.648667,-120,-120,0
1615614822.278077,90,0,0,0,0,0,0,0,0,0,1615614822.25841,2.379857063293457,-4.476410865783691,-45.33846282958984,1.038221836090088,8.058107376098633,13.62664413452148,63795.995277875,0.1514434814453125,-0.309722900390625,-0.885894775390625,63795.995277875,0.1467918455600739,0.6376491785049438,0.2980087995529175,63795.989584875,11.31906127929688,-10.49464416503906,-34.45767211914062,63795.959169875,-0.7408435147682497,0.1565135922913835,0.3302112366050863,0.1193325594067574,0.1073890551924706,0.06027039140462875,-0.02965617179870605,0.04125335812568665,-0.03456789255142212,2,0.1806559629280299,0.01256717313649101,-0.3440153906625651,0.9213353838243248,0.1474540233612061,-0.3242428600788116,-0.9344109892845154,2.384255409240723,-4.434518814086914,-45.08905029296875,-1,2,63791.57726950001,1,2,1615614817.859861,1615611623.065331,2877,0.8998966,0,0,1976.718,3,8,1615614665.185486,63793.256572,0,-2.158783,99.48276,1615614820.284273,1681917671,1682799177,0,1615614822.016627,1,1615614819.262071,1,0.13,1615611989.648667,-120,-120,0
1615614822.318212,91,0,0,0,0,0,0,0,0,0,1615614822.298136,2.618858337402344,-4.572093963623047,-45.71657180786133,0.2074050903320312,7.227290630340576,13.62734889984131,63796.028896875,0.1939697265625,-0.32208251953125,-0.909210205078125,63796.028896875,0.06942141801118851,0.2692019045352936,0.2140435874462128,63795.989584875,11.31906127929688,-10.49464416503906,-34.45767211914062,63796.01893587501,-0.7273136040483331,0.1803802519800689,0.3395775674978775,0.07252503931522369,0.4708412885665894,0.2836395800113678,0.02276614308357239,0.01422590017318726,0.0217289924621582,2,0.1888577703773636,0.02310837878261587,-0.3349308098140902,0.9228326362398929,0.1691589057445526,-0.3330888152122498,-0.9275974631309509,2.883408546447754,-4.688267707824707,-45.75592422485352,-1,2,63791.57726950001,1,2,1615614817.859861,1615611623.065331,2877,0.8998966,0,0,1976.718,3,8,1615614665.185486,63793.256572,0,-2.158783,99.48276,1615614820.284273,1681917671,1682799177,0,1615614822.016627,1,1615614819.262071,1,0.13,1615611989.648667,-120,-120,0
1615614822.347985,92,0,0,0,0,0,0,0,0,0,1615614822.338304,3.59112548828125,-4.775815010070801,-45.273681640625,359.7748107910156,6.794710159301758,13.62805271148682,63796.062514875,0.217437744140625,-0.3542938232421875,-0.926513671875,63796.062514875,0.03206099569797516,-0.6734143495559692,-0.01381674595177174,63796.049586875,12.63763427734375,-10.75431823730469,-34.10955810546875,63796.01893587501,-0.7273136040483331,0.1803802519800689,0.3395775674978775,0.07252503931522369,0.4708412885665894,0.2836395800113678,0.02276614308357239,0.01422590017318726,0.0217289924621582,2,0.1888577703773636,0.02310837878261587,-0.3349308098140902,0.9228326362398929,0.1691589057445526,-0.3330888152122498,-0.9275974631309509,2.883408546447754,-4.688267707824707,-45.75592422485352,-1,2,63791.57726950001,1,2,1615614817.859861,1615611623.065331,2877,0.8998966,0,0,1976.718,3,8,1615614665.185486,63793.256572,0,-2.158783,99.48276,1615614820.284273,1681917671,1682799177,0,1615614822.016627,1,1615614819.262071,1,0.13,1615611989.648667,-120,-120,0
1615614822.377955,93,0,0,0,0,0,0,0,0,0,1615614822.358073,3.538707733154297,-4.64949893951416,-45.49421691894531,359.9278869628906,6.947785377502441,13.62840461730957,63796.09613287501,0.1002349853515625,-0.278717041015625,-0.9510498046875,63796.09613287501,-0.1478331387042999,-1.102690100669861,-0.01574300974607468,63796.049586875,12.63763427734375,-10.75431823730469,-34.10955810546875,63796.07870187501,-0.7223319399073144,0.1614760976866689,0.3423411671819678,-0.06404276192188263,-1.045421719551086,-0.04599388688802719,0.004987418651580811,0.01661679148674011,-0.0120246410369873,2,0.1869102655385417,0.01434993207390667,-0.3342155027687748,0.9236658591416709,0.1514457017183304,-0.3356933295726776,-0.9297172427177429,3.374682426452637,-4.654059410095215,-45.4436149597168,-1,2,63791.57726950001,1,2,1615614817.859861,1615611623.065331,2877,0.8998966,0,0,1976.718,3,8,1615614665.185486,63793.256572,0,-2.158783,99.48276,1615614820.284273,1681917671,1682799177,0,1615614822.016627,1,1615614819.262071,1,0.13,1615611989.648667,-120,-120,0
1615614822.417791,94,0,0,0,0,0,0,0,0,0,1615614822.397928,2.258993148803711,-4.559561729431152,-45.32840347290039,0.3102188110351562,7.330104351043701,13.62910842895508,63796.12975187501,0.0716552734375,-0.3101348876953125,-0.902679443359375,63796.09613287501,-0.1478331387042999,-1.102690100669861,-0.01574300974607468,63796.109581875,11.05279541015625,-10.55241394042969,-34.22383117675781,63796.07870187501,-0.7223319399073144,0.1614760976866689,0.3423411671819678,-0.06404276192188263,-1.045421719551086,-0.04599388688802719,0.004987418651580811,0.01661679148674011,-0.0120246410369873,2,0.1869102655385417,0.01434993207390667,-0.3342155027687748,0.9236658591416709,0.1514457017183304,-0.3356933295726776,-0.9297172427177429,3.374682426452637,-4.654059410095215,-45.4436149597168,-1,2,63791.57726950001,1,2,1615614817.859861,1615611623.065331,2877,0.8998966,0,0,1976.718,3,8,1615614665.185486,63793.256572,0,-2.158783,99.48276,1615614820.284273,1681917671,1682799177,0,1615614822.016627,1,1615614819.262071,1,0.13,1615611989.648667,-120,-120,0
1615614822.447666,95,0,0,0,0,0,0,0,0,0,1615614822.437898,0.8639631271362305,-4.183040618896484,-44.96947479248047,359.9196472167969,6.939547061920166,13.62981128692627,63796.163369875,0.1319427490234375,-0.3351898193359375,-0.9175262451171875,63796.163369875,-0.01476802676916122,0.5906515717506409,-0.001337705762125552,63796.109581875,11.05279541015625,-10.55241394042969,-34.22383117675781,63796.138467875,-0.7163406353446349,0.1181917521482748,0.3346414705944453,-0.07219298183917999,0.1608656793832779,0.1963434368371964,0.003187291324138641,-0.002288460731506348,0.0322532057762146,2,0.1761156143239021,-0.003739987244381252,-0.335850118451011,0.9252967172071123,0.111375704407692,-0.328430563211441,-0.9379386305809021,1.091520309448242,-4.264829635620117,-45.01290512084961,-1,2,63791.57726950001,1,2,1615614817.859861,1615611623.065331,2877,0.8998966,0,0,1976.718,3,8,1615614665.185486,63793.256572,0,-2.158783,99.48276,1615614820.284273,1681917671,1682799177,0,1615614822.016627,1,1615614819.262071,1,0.13,1615611989.648667,-120,-120,0
1615614822.477657,96,0,0,0,0,0,0,0,0,0,1615614822.457788,1.070731163024902,-4.081301689147949,-44.74499893188477,359.8048706054688,6.824740886688232,13.63016319274902,63796.196986875,0.1206512451171875,-0.3553619384765625,-0.9490203857421875,63796.163369875,-0.01476802676916122,0.5906515717506409,-0.001337705762125552,63796.169579875,10.095703125,-10.0491943359375,-33.65948486328125,63796.138467875,-0.7163406353446349,0.1181917521482748,0.3346414705944453,-0.07219298183917999,0.1608656793832779,0.1963434368371964,0.003187291324138641,-0.002288460731506348,0.0322532057762146,2,0.1761156143239021,-0.003739987244381252,-0.335850118451011,0.9252967172071123,0.111375704407692,-0.328430563211441,-0.9379386305809021,1.091520309448242,-4.264829635620117,-45.01290512084961,-1,2,63791.57726950001,1,2,1615614817.859861,1615611623.065331,2877,0.8998966,0,0,1976.718,3,8,1615614665.185486,63793.256572,0,-2.158783,99.48276,1615614820.284273,1681917671,1682799177,0,1615614822.016627,1,1615614819.262071,1,0.13,1615611989.648667,-120,-120,0
1615614822.517197,97,0,0,0,0,0,0,0,0,0,1615614822.497982,1.783938407897949,-3.883829116821289,-44.72213745117188,0.03760147094726562,7.057487010955811,13.63086605072021,63796.230605875,0.128662109375,-0.3368682861328125,-0.946807861328125,63796.196986875,-0.06866587698459625,0.4167607426643372,-0.2232109755277634,63796.229577875,11.1702880859375,-9.753814697265625,-33.63334655761719,63796.198232875,-0.7178279060975814,0.1467373800661977,0.3313491475798775,-0.07933275401592255,0.4139917492866516,-0.2234308123588562,-0.04846011102199554,-0.01476877927780151,0.01864844560623169,2,0.1793892054026237,0.009919425118947195,-0.334197297691893,0.9252205929233637,0.138258084654808,-0.3253190815448761,-0.9354422092437744,1.530935287475586,-3.925456047058105,-44.67863845825195,-1,2,63791.57726950001,1,2,1615614817.859861,1615611623.065331,2877,0.8998966,0,0,1976.718,3,8,1615614665.185486,63793.256572,0,-2.158783,99.48276,1615614820.284273,1681917671,1682799177,0,1615614822.016627,1,1615614819.262071,1,0.13,1615611989.648667,-120,-120,0
1615614822.554322,98,0,0,0,0,0,0,0,0,0,1615614822.537547,2.66818904876709,-3.487244606018066,-44.55537796020508,0.08875370025634766,7.108639240264893,13.63156890869141,63796.264223875,0.2000579833984375,-0.337158203125,-0.8725738525390625,63796.264223875,-0.4028944671154022,0.07064807415008545,-0.178072527050972,63796.259578875,11.8111572265625,-9.212615966796875,-33.48233032226562,63796.198232875,-0.7178279060975814,0.1467373800661977,0.3313491475798775,-0.07933275401592255,0.4139917492866516,-0.2234308123588562,-0.04846011102199554,-0.01476877927780151,0.01864844560623169,2,0.1793892054026237,0.009919425118947195,-0.334197297691893,0.9252205929233637,0.138258084654808,-0.3253190815448761,-0.9354422092437744,1.530935287475586,-3.925456047058105,-44.67863845825195,-1,2,63791.57726950001,1,2,1615614817.859861,1615611623.065331,2877,0.8998966,0,0,1976.718,3,8,1615614665.185486,63793.256572,0,-2.158783,99.48276,1615614820.284273,1681917671,1682799177,0,1615614822.016627,1,1615614819.262071,1,0.13,1615611989.648667,-120,-120,0
1615614822.58712,99,0,0,0,0,0,0,0,0,0,1615614822.577459,2.851766586303711,-2.584686279296875,-44.27933120727539,0.5019268989562988,7.521812438964844,13.6322717666626,63796.29784287501,0.162322998046875,-0.3266754150390625,-0.843994140625,63796.29784287501,-0.2306899428367615,0.5031781792640686,-0.3684430122375488,63796.259578875,11.8111572265625,-9.212615966796875,-33.48233032226562,63796.257998875,-0.722378266418882,0.1691783293870717,0.3031332407096548,-0.5445821285247803,-0.001655619125813246,-0.1336047202348709,0.03939282894134521,-0.03628101944923401,0.07121241092681885,2,0.1702546496627263,0.02496476078723282,-0.3361529883278121,0.9259541776438455,0.1606956720352173,-0.2985120415687561,-0.9407802224159241,2.791563987731934,-3.30448055267334,-44.55696105957031,-1,2,63791.57726950001,1,2,1615614817.859861,1615611623.065331,2877,0.8998966,0,0,1976.718,3,8,1615614665.185486,63793.256572,0,-2.158783,99.48276,1615614820.284273,1681917671,1682799177,0,1615614822.016627,1,1615614819.262071,1,0.13,1615611989.648667,-120,-120,0
1615614822.616817,100,0,0,0,0,0,0,0,0,0,1615614822.597301,3.106369972229004,-2.230271339416504,-44.41300582885742,0.8578047752380371,7.877690315246582,13.63262271881104,63796.331460875,0.1657562255859375,-0.33050537109375,-0.9716796875,63796.331460875,-0.6920684576034546,-0.689192533493042,-0.4009146690368652,63796.319578875,12.35057067871094,-8.039505004882812,-33.43388366699219,63796.31776487501,-0.7386808747278336,0.1908089474756362,0.28199523555567,-0.5277906656265259,-0.204434722661972,-0.4311035573482513,-0.01785567402839661,-0.03215217590332031,-0.02267390489578247,2,0.1645058947366338,0.03745342996268503,-0.3433083913440221,0.9239449542544473,0.1821623295545578,-0.2782726287841797,-0.943070113658905,3.302165031433105,-2.107501983642578,-44.48178100585938,-1,2,63791.57726950001,1,2,1615614817.859861,1615611623.065331,2877,0.8998966,0,0,1976.718,3,8,1615614665.185486,63793.256572,0,-2.158783,99.48276,1615614820.284273,1681917671,1682799177,0,1615614822.016627,1,1615614819.262071,1,0.13,1615611989.648667,-120,-120,0
1615614822.64694,101,0,0,0,0,0,0,0,0,0,1615614822.637248,3.323898315429688,-1.519531726837158,-44.24491882324219,1.821524143218994,8.841409683227539,13.63332366943359,63796.365078875,0.154754638671875,-0.3302459716796875,-0.8903961181640625,63796.331460875,-0.6920684576034546,-0.689192533493042,-0.4009146690368652,63796.349579875,12.22998046875,-7.403778076171875,-33.1170654296875,63796.31776487501,-0.7386808747278336,0.1908089474756362,0.28199523555567,-0.5277906656265259,-0.204434722661972,-0.4311035573482513,-0.01785567402839661,-0.03215217590332031,-0.02267390489578247,2,0.1645058947366338,0.03745342996268503,-0.3433083913440221,0.9239449542544473,0.1821623295545578,-0.2782726287841797,-0.943070113658905,3.302165031433105,-2.107501983642578,-44.48178100585938,-1,2,63791.57726950001,1,2,1615614817.859861,1615611623.065331,2877,0.8998966,0,0,1976.718,3,8,1615614665.185486,63793.256572,0,-2.158783,99.48276,1615614820.284273,1681917671,1682799177,0,1615614822.016627,1,1615614819.262071,1,0.13,1615611989.648667,-120,-120,0
1615614822.686758,102,0,0,0,0,0,0,0,0,0,1615614822.676843,1.768655776977539,0.1094207763671875,-44.40931701660156,3.019613742828369,10.03949928283691,13.63402462005615,63796.398697875,0.0709381103515625,-0.2452545166015625,-0.8492584228515625,63796.365078875,-0.5836796760559082,-0.9980276226997375,-0.3878691792488098,63796.349579875,12.22998046875,-7.403778076171875,-33.1170654296875,63796.377530875,-0.7557026853788174,0.1455339742562679,0.23961216252314,-0.3744479715824127,-0.9403071403503418,-0.4653739035129547,-0.02968674898147583,-0.02208878099918365,0.07886701822280884,2,0.1374242931097493,0.02311288297478225,-0.3572339858079732,0.9235605152588906,0.1408775448799133,-0.2373258918523788,-0.9611607193946838,2.20485782623291,-0.2413554191589355,-44.43749237060547,-1,2,63791.57726950001,1,2,1615614817.859861,1615611623.065331,2877,0.8998966,0,0,1976.718,3,8,1615614665.185486,63793.256572,0,-2.158783,99.48276,1615614820.284273,1681917671,1682799177,0,1615614822.016627,1,1615614819.262071,1,0.13,1615611989.648667,-120,-120,0
1615614822.716553,103,0,0,0,0,0,0,0,0,0,1615614822.696825,0.8743181228637695,0.4813680648803711,-44.48933410644531,3.832355976104736,10.85224151611328,13.63437557220459,63796.432315875,0.0840606689453125,-0.2847900390625,-0.861724853515625,63796.398697875,-0.06034430116415024,-0.6473265886306763,-0.6312557458877563,63796.409576875,9.681838989257812,-5.4378662109375,-33.419677734375,63796.377530875,-0.7557026853788174,0.1455339742562679,0.23961216252314,-0.3744479715824127,-0.9403071403503418,-0.4653739035129547,-0.02968674898147583,-0.02208878099918365,0.07886701822280884,2,0.1374242931097493,0.02311288297478225,-0.3572339858079732,0.9235605152588906,0.1408775448799133,-0.2373258918523788,-0.9611607193946838,2.20485782623291,-0.2413554191589355,-44.43749237060547,-1,2,63791.57726950001,1,2,1615614817.859861,1615611623.065331,2877,0.8998966,0,0,1976.718,3,8,1615614665.185486,63793.256572,0,-2.158783,99.48276,1615614820.284273,1681917671,1682799177,0,1615614822.016627,1,1615614819.262071,1,0.13,1615611989.648667,-120,-120,0
1615614822.746387,104,0,0,0,0,0,0,0,0,0,1615614822.736786,-0.2101678848266602,0.6500096321105957,-44.49317169189453,5.554455280303955,12.5743408203125,13.63507652282715,63796.46593387501,0.1331024169921875,-0.306854248046875,-0.912261962890625,63796.46593387501,0.008433698676526546,-0.7971000671386719,-0.6245376467704773,63796.409576875,9.681838989257812,-5.4378662109375,-33.419677734375,63796.437296875,-0.7939207498440716,0.1186855927131604,0.2313054049140726,0.05998002365231514,-0.4780493676662445,-0.7016927599906921,-0.007709771394729614,-0.07208219170570374,0.06870859861373901,2,0.1290109345605346,0.009795681712953079,-0.3770464578659054,0.9171130060227779,0.1152537241578102,-0.2292483597993851,-0.9665204286575317,-0.006359100341796875,0.6078338623046875,-44.5124397277832,-1,2,63791.57726950001,1,2,1615614817.859861,1615611623.065331,2877,0.8998966,0,0,1976.718,3,8,1615614665.185486,63793.256572,0,-2.158783,99.48276,1615614820.284273,1681917671,1682799177,0,1615614822.016627,1,1615614819.262071,1,0.13,1615611989.648667,-120,-120,0
1615614822.786615,105,0,0,0,0,0,0,0,0,0,1615614822.77646,-1.224818229675293,0.4055495262145996,-44.43056106567383,7.126952648162842,14.14683818817139,13.63577747344971,63796.499552875,0.09564208984375,-0.2955322265625,-0.9100341796875,63796.499552875,-0.1559848040342331,-0.8959755301475525,-0.523695707321167,63796.49957287501,7.292572021484375,-5.4901123046875,-33.47224426269531,63796.437296875,-0.7939207498440716,0.1186855927131604,0.2313054049140726,0.05998002365231514,-0.4780493676662445,-0.7016927599906921,-0.007709771394729614,-0.07208219170570374,0.06870859861373901,2,0.1290109345605346,0.009795681712953079,-0.3770464578659054,0.9171130060227779,0.1152537241578102,-0.2292483597993851,-0.9665204286575317,-0.006359100341796875,0.6078338623046875,-44.5124397277832,-1,2,63791.57726950001,1,2,1615614817.859861,1615611623.065331,2877,0.8998966,0,0,1976.718,3,8,1615614665.185486,63793.256572,0,-2.158783,99.48276,1615614820.284273,1681917671,1682799177,0,1615614822.016627,1,1615614819.262071,1,0.13,1615611989.648667,-120,-120,0
1615614822.817425,106,0,0,0,0,0,0,0,0,0,1615614822.816129,-2.649744987487793,0.7426724433898926,-44.4231071472168,8.587705612182617,15.60759162902832,13.63647842407227,63796.533170875,0.0969390869140625,-0.28314208984375,-0.91241455078125,63796.533170875,-0.3445842862129211,-0.7156007289886475,-0.6280040144920349,63796.52957387501,6.174270629882812,-5.185531616210938,-33.30647277832031,63796.497062875,-0.8313029398691926,0.08144077073389884,0.2263019192679242,-0.1525145769119263,-0.9133326411247253,-0.5209679007530212,0.01236774772405624,-0.06758639216423035,0.06354278326034546,2,0.1195428376752125,-0.008548821679477916,-0.3966662519161967,0.9101056242488602,0.07927655428647995,-0.2243752777576447,-0.9712728261947632,-1.548975944519043,0.4664888381958008,-44.51422119140625,-1,2,63791.57726950001,1,2,1615614817.859861,1615611623.065331,2877,0.8998966,0,0,1976.718,3,8,1615614665.185486,63793.256572,0,-2.158783,99.48276,1615614820.284273,1681917671,1682799177,0,1615614822.016627,1,1615614819.262071,1,0.13,1615611989.648667,-120,-120,0
1615614822.856157,107,0,0,0,0,0,0,0,0,0,1615614822.836147,-3.341456413269043,1.099095821380615,-44.19398498535156,9.43199348449707,16.45187950134277,13.63682842254639,63796.566789875,0.11151123046875,-0.2792816162109375,-0.953216552734375,63796.566789875,-0.4829797148704529,-0.6866241693496704,-0.7297151684761047,63796.55957687501,5.266357421875,-4.79498291015625,-32.85824584960938,63796.55682887501,-0.8676404544790374,0.04390303941009403,0.2049862317384731,-0.4531545341014862,-0.6377213001251221,-0.7418651580810547,0.06709159910678864,-0.07118082046508789,0.03073269128799438,2,0.1019916771419006,-0.02318427743512319,-0.4159958874640969,0.903331315592329,0.04297006875276566,-0.2035536766052246,-0.9781203866004944,-3.600925922393799,1.161168098449707,-44.00764083862305,-1,2,63791.57726950001,1,2,1615614817.859861,1615611623.065331,2877,0.8998966,0,0,1976.718,3,8,1615614665.185486,63793.256572,0,-2.158783,99.48276,1615614820.284273,1681917671,1682799177,0,1615614822.016627,1,1615614819.262071,1,0.13,1615611989.648667,-120,-120,0
1615614822.891978,108,0,0,0,0,0,0,0,0,0,1615614822.876143,-4.508603572845459,1.863565921783447,-44.24325561523438,11.1849365234375,18.2048225402832,13.63752937316895,63796.600407875,0.1083221435546875,-0.281494140625,-0.9678192138671875,63796.566789875,-0.4829797148704529,-0.6866241693496704,-0.7297151684761047,63796.58957787501,4.341751098632812,-4.005279541015625,-33.24143981933594,63796.55682887501,-0.8676404544790374,0.04390303941009403,0.2049862317384731,-0.4531545341014862,-0.6377213001251221,-0.7418651580810547,0.06709159910678864,-0.07118082046508789,0.03073269128799438,2,0.1019916771419006,-0.02318427743512319,-0.4159958874640969,0.903331315592329,0.04297006875276566,-0.2035536766052246,-0.9781203866004944,-3.600925922393799,1.161168098449707,-44.00764083862305,-1,2,63791.57726950001,1,2,1615614817.859861,1615611623.065331,2877,0.8998966,0,0,1976.718,3,8,1615614665.185486,63793.256572,0,-2.158783,99.48276,1615614820.284273,1681917671,1682799177,0,1615614822.016627,1,1615614819.262071,1,0.13,1615611989.648667,-120,-120,0
1615614822.916006,109,0,0,0,0,0,0,0,0,0,1615614822.896005,-5.203978061676025,2.332569599151611,-44.15840530395508,12.0716609954834,19.0915470123291,13.63787937164307,63796.63402587501,0.0848388671875,-0.271484375,-0.97637939453125,63796.63402587501,-0.3490687906742096,-1.030553102493286,-0.9261906743049622,63796.619578875,3.232986450195312,-3.305343627929688,-32.9083251953125,63796.61659487501,-0.9096739933515609,0.002213485487749314,0.1744424263034951,-0.4215985834598541,-1.007613062858582,-0.780941367149353,0.09321808069944382,-0.09592640399932861,0.01012015342712402,2,0.07873867280340227,-0.0372786414930148,-0.4375590400951122,0.8949594573306241,0.00217989063821733,-0.1735590547323227,-0.9848210215568542,-5.585671424865723,2.577899932861328,-44.03334045410156,-1,2,63791.57726950001,1,2,1615614817.859861,1615611623.065331,2877,0.8998966,0,0,1976.718,3,8,1615614665.185486,63794.200525,0,-2.222198,99.48351,1615614820.284273,1681917671,1682799177,0,1615614822.016627,1,1615614819.262071,1,0.13,1615611989.648667,-120,-120,0
1615614822.955593,110,0,0,0,0,0,0,0,0,0,1615614822.935936,-7.030509471893311,3.28897762298584,-43.81270217895508,14.19354820251465,21.21343421936035,13.63857841491699,63796.66764462501,-0.03759765625,-0.2641143798828125,-0.973175048828125,63796.66764462501,-0.653696596622467,-0.768771231174469,-0.9865390062332153,63796.619578875,3.232986450195312,-3.305343627929688,-32.9083251953125,63796.61659487501,-0.9096739933515609,0.002213485487749314,0.1744424263034951,-0.4215985834598541,-1.007613062858582,-0.780941367149353,0.09321808069944382,-0.09592640399932861,0.01012015342712402,2,0.07873867280340227,-0.0372786414930148,-0.4375590400951122,0.8949594573306241,0.00217989063821733,-0.1735590547323227,-0.9848210215568542,-5.585671424865723,2.577899932861328,-44.03334045410156,-1,2,63791.57726950001,1,2,1615614817.859861,1615611623.065331,2877,0.8998966,0,0,1976.718,3,8,1615614665.185486,63794.200525,0,-2.222198,99.48351,1615614820.284273,1681917671,1682799177,0,1615614822.016627,1,1615614819.262071,1,0.13,1615611989.648667,-120,-120,0
1615614822.985807,111,0,0,0,0,0,0,0,0,0,1615614822.975725,-8.986323356628418,3.733877182006836,-43.58734893798828,16.39974975585938,23.41963577270508,13.63927745819092,63796.70126162501,-0.0052337646484375,-0.2422027587890625,-1.072219848632812,63796.66764462501,-0.653696596622467,-0.768771231174469,-0.9865390062332153,63796.67957162501,0.2169952392578125,-2.348724365234375,-32.53242492675781,63796.676360625,-0.9678243322374994,-0.04472202029244749,0.1473330390162934,-0.7972871065139771,-0.6961889266967773,-0.9079759120941162,0.003588631749153137,-0.09628717601299286,-0.03518408536911011,2,0.05475871372597567,-0.05397171266086029,-0.4653245895754339,0.8817944542897377,-0.04422276094555855,-0.1468005925416946,-0.9881770610809326,-8.552817344665527,3.589959859848022,-43.64029312133789,-1,2,63791.57726950001,1,2,1615614817.859861,1615611623.065331,2877,0.8998966,0,0,1976.718,3,8,1615614665.185486,63794.200525,0,-2.222198,99.48351,1615614820.284273,1681917671,1682799177,0,1615614822.016627,1,1615614819.262071,1,0.13,1615611989.648667,-120,-120,0
1615614823.023484,112,0,0,0,0,0,0,0,0,0,1615614822.995591,-9.738940238952637,4.286766529083252,-43.38693237304688,17.11196899414062,24.13185501098633,13.63962650299072,63796.734879625,-0.030242919921875,-0.1616363525390625,-1.070419311523438,63796.734879625,-0.7738648056983948,-0.06720034033060074,-0.1884873509407043,63796.70957462501,-0.9052734375,-1.559112548828125,-32.27720642089844,63796.676360625,-0.9678243322374994,-0.04472202029244749,0.1473330390162934,-0.7972871065139771,-0.6961889266967773,-0.9079759120941162,0.003588631749153137,-0.09628717601299286,-0.03518408536911011,2,0.05475871372597567,-0.05397171266086029,-0.4653245895754339,0.8817944542897377,-0.04422276094555855,-0.1468005925416946,-0.9881770610809326,-8.552817344665527,3.589959859848022,-43.64029312133789,-1,2,63791.57726950001,1,2,1615614817.859861,1615611623.065331,2877,0.8998966,0,0,1976.718,3,8,1615614665.185486,63794.200525,0,-2.222198,99.48351,1615614820.284273,1681917671,1682799177,0,1615614822.016627,1,1615614819.262071,1,0.13,1615611989.648667,-120,-120,0
1615614823.059414,113,0,0,0,0,0,0,0,0,0,1615614823.055112,-10.96295833587646,6.241218566894531,-42.3785400390625,17.94953536987305,24.96942138671875,13.64067459106445,63796.768498625,-0.047271728515625,-0.0981597900390625,-1.093841552734375,63796.768498625,-0.8064808249473572,0.04120602458715439,-0.1114748641848564,63796.769567625,-2.007476806640625,0.3922271728515625,-31.21408081054688,63796.736125625,-1.001705037119187,-0.06701792541497256,0.09811683567017467,-0.787202775478363,-0.06057378649711609,-0.178662970662117,0.01549824327230453,-0.0375538244843483,-0.08260518312454224,2,0.02692358698765632,-0.05288620589829651,-0.4807677207773046,0.8748374253271196,-0.06664568185806274,-0.0979594811797142,-0.9929563403129578,-10.67416763305664,5.282835006713867,-42.93077850341797,-1,2,63791.57726950001,1,2,1615614817.859861,1615611623.065331,2877,0.8998966,0,0,1976.718,3,8,1615614665.185486,63794.200525,0,-2.222198,99.48351,1615614820.284273,1681917671,1682799177,0,1615614822.016627,1,1615614819.262071,1,0.13,1615611989.648667,-120,-120,0
1615614823.09472,114,0,0,0,0,0,0,0,0,0,1615614823.075319,-10.92588996887207,6.888757705688477,-41.77801513671875,18.14520645141602,25.16509246826172,13.64102458953857,63796.802116625,-0.0012969970703125,-0.1048736572265625,-1.038650512695312,63796.802116625,-0.55918288230896,-0.214453712105751,-0.1741456985473633,63796.769567625,-2.007476806640625,0.3922271728515625,-31.21408081054688,63796.736125625,-1.001705037119187,-0.06701792541497256,0.09811683567017467,-0.787202775478363,-0.06057378649711609,-0.178662970662117,0.01549824327230453,-0.0375538244843483,-0.08260518312454224,2,0.02692358698765632,-0.05288620589829651,-0.4807677207773046,0.8748374253271196,-0.06664568185806274,-0.0979594811797142,-0.9929563403129578,-10.67416763305664,5.282835006713867,-42.93077850341797,-1,2,63791.57726950001,1,2,1615614817.859861,1615611623.065331,2877,0.8998966,0,0,1976.718,3,8,1615614665.185486,63794.200525,0,-2.222198,99.48351,1615614820.284273,1681917671,1682799177,0,1615614822.016627,1,1615614819.262071,1,0.13,1615611989.648667,-120,-120,0
1615614823.124908,115,0,0,0,0,0,0,0,0,0,1615614823.115202,-11.31039524078369,8.031676292419434,-41.78694915771484,18.74679183959961,25.76667785644531,13.64172172546387,63796.83573562501,-0.032958984375,-0.04736328125,-0.979278564453125,63796.802116625,-0.55918288230896,-0.214453712105751,-0.1741456985473633,63796.829561625,-2.400100708007812,2.138229370117188,-30.74290466308594,63796.79589162501,-1.012182586504722,-0.0673084409069563,0.05247051298038067,-0.6202216744422913,-0.1973717212677002,-0.1499743610620499,0.06603594124317169,-0.05042832344770432,-0.03783243894577026,2,0.006625335554713483,-0.04212904584123765,-0.4850930138201833,0.8734220321675839,-0.0671650692820549,-0.05244643986225128,-0.9963625073432922,-10.90996646881104,7.177060604095459,-41.4417839050293,-1,2,63791.57726950001,1,2,1615614817.859861,1615611623.065331,2877,0.8998966,0,0,1976.718,3,8,1615614665.185486,63794.200525,0,-2.222198,99.48351,1615614820.284273,1681917671,1682799177,0,1615614822.016627,1,1615614819.262071,1,0.13,1615611989.648667,-120,-120,0
