loggingTime(txt),locationTimestamp_since1970(s),locationLatitude(WGS84),locationLongitude(WGS84),locationAltitude(m),locationSpeed(m/s),locationCourse(°),locationVerticalAccuracy(m),locationHorizontalAccuracy(m),locationFloor(Z),accelerometerTimestamp_sinceReboot(s),accelerometerAccelerationX(G),accelerometerAccelerationY(G),accelerometerAccelerationZ(G),motionTimestamp_sinceReboot(s),motionYaw(rad),motionRoll(rad),motionPitch(rad),motionRotationRateX(rad/s),motionRotationRateY(rad/s),motionRotationRateZ(rad/s),motionUserAccelerationX(G),motionUserAccelerationY(G),motionUserAccelerationZ(G),motionAttitudeReferenceFrame(txt),motionQuaternionX(R),motionQuaternionY(R),motionQuaternionZ(R),motionQuaternionW(R),motionGravityX(G),motionGravityY(G),motionGravityZ(G),motionMagneticFieldX(µT),motionMagneticFieldY(µT),motionMagneticFieldZ(µT),motionHeading(°),motionMagneticFieldCalibrationAccuracy(Z),activityTimestamp_sinceReboot(s),activity(txt),activityActivityConfidence(Z),activityActivityStartDate(txt),pedometerStartDate(txt),pedometerNumberofSteps(N),pedometerAverageActivePace(s/m),pedometerCurrentPace(s/m),pedometerCurrentCadence(steps/s),pedometerDistance(m),pedometerFloorAscended(N),pedometerFloorDescended(N),pedometerEndDate(txt),altimeterTimestamp_sinceReboot(s),altimeterReset(bool),altimeterRelativeAltitude(m),altimeterPressure(kPa),batteryState(N),batteryLevel(R)
2021-03-13 00:53:36.016 -0500,0,0,0,0,0,0,0,0,0,11373.72545041667,-0.0261077880859375,-0.0283966064453125,-0.9928436279296875,11373.70030441667,0.2777114938050105,-0.01906013489802004,0.00784342166524242,-0.005617103539407253,-0.05701018124818802,-0.04887978360056877,-0.003616239875555038,0.002975711598992348,-0.005583465099334717,XArbitraryZVertical,0.005202804574433439,-0.008895347728425068,0.1383656068895357,0.9903275696485299,-0.01905839517712593,-0.007843341678380966,-0.9997876286506653,0,0,0,-1,-1,11365.78026116667,unknown,2,2021-03-13 00:53:28.069 -0500,2021-03-13 00:47:42.026 -0500,20,2.267731,0,0,14.11,0,0,2021-03-13 00:50:58.765 -0500,637307615.7927291,0,1.039999,99.51485,1,0.92
2021-03-13 00:53:36.051 -0500,0,0,0,0,0,0,0,0,0,11373.76063741667,-0.0088958740234375,-0.0526123046875,-1.003082275390625,11373.73048541667,0.2772167288525493,-0.02046569465237742,0.008126516853539366,0.01248787622898817,-0.02361143566668034,0.00650789076462388,-0.005644271150231361,-0.02027025446295738,0.006913959980010986,XArbitraryZVertical,0.005437851820298621,-0.009573077250957756,0.1381154124442141,0.9903549038561081,-0.02046358957886696,-0.008126427419483662,-0.9997575879096985,0,0,0,-1,-1,11365.78026116667,unknown,2,2021-03-13 00:53:28.069 -0500,2021-03-13 00:47:42.026 -0500,20,2.267731,0,0,14.11,0,0,2021-03-13 00:50:58.765 -0500,637307615.7927291,0,1.039999,99.51485,1,0.92
2021-03-13 00:53:36.087 -0500,0,0,0,0,0,0,0,0,0,11373.79582441667,-0.010284423828125,-0.0062255859375,-0.9915924072265625,11373.79081941667,0.280403691346528,-0.02357524963014685,0.007929406746952599,0.02254055440425873,-0.03512278571724892,0.06610164046287537,0.01839952170848846,0.002878588624298573,0.002132117748260498,XArbitraryZVertical,0.005572705191264288,-0.01111760139689944,0.1396859091683073,0.9901177069335952,-0.02357232570648193,-0.007929323241114616,-0.9996907114982605,0,0,0,-1,-1,11365.78026116667,unknown,2,2021-03-13 00:53:28.069 -0500,2021-03-13 00:47:42.026 -0500,20,2.267731,0,0,14.11,0,0,2021-03-13 00:50:58.765 -0500,637307615.7927291,0,1.039999,99.51485,1,0.92
2021-03-13 00:53:36.131 -0500,0,0,0,0,0,0,0,0,0,11373.83104141667,-0.0059356689453125,-0.005828857421875,-0.9940185546875,11373.82097041667,0.2824024333529377,-0.02424711614467143,0.008660214488451791,-0.0269487239420414,-0.02482229098677635,0.06041676551103592,0.02399962022900581,-0.0002053249627351761,0.003773212432861328,XArbitraryZVertical,0.005992804289334792,-0.01139315330841407,0.140668837953377,0.9899730524589671,-0.02424383163452148,-0.008660105988383293,-0.9996685385704041,0,0,0,-1,-1,11365.78026116667,unknown,2,2021-03-13 00:53:28.069 -0500,2021-03-13 00:47:42.026 -0500,20,2.267731,0,0,14.11,0,0,2021-03-13 00:50:58.765 -0500,637307615.7927291,0,1.039999,99.51485,1,0.92
2021-03-13 00:53:36.158 -0500,0,0,0,0,0,0,0,0,0,11373.86622841667,-0.013275146484375,-0.02191162109375,-0.99713134765625,11373.85115241667,0.2840745406581718,-0.02450310991290507,0.008833172521518641,-0.04438972100615501,-0.01278638280928135,0.06670481711626053,0.006417965516448021,-0.004075951874256134,0.004970908164978027,XArbitraryZVertical,0.00610603892652306,-0.01150259191114608,0.1414945896384318,0.9898533930070599,-0.02449970133602619,-0.008833057247102261,-0.9996607899665833,0,0,0,-1,-1,11365.78026116667,unknown,2,2021-03-13 00:53:28.069 -0500,2021-03-13 00:47:42.026 -0500,20,2.267731,0,0,14.11,0,0,2021-03-13 00:50:58.765 -0500,637307615.7927291,0,1.039999,99.51485,1,0.92
2021-03-13 00:53:36.261 -0500,0,0,0,0,0,0,0,0,0,11373.90144541667,-0.0243682861328125,-0.0166015625,-0.9836578369140625,11373.88133441667,0.286048623465713,-0.02447560452341484,0.007512641591681144,-0.04601107537746429,-0.02088312804698944,0.07123115658760071,0.01267735287547112,-0.00519807543605566,0.004021048545837402,XArbitraryZVertical,0.005461965324261486,-0.01157708524801566,0.1424800108567736,0.9897149418787408,-0.02447246946394444,-0.007512570824474096,-0.9996722936630249,0,0,0,-1,-1,11365.78026116667,unknown,2,2021-03-13 00:53:28.069 -0500,2021-03-13 00:47:42.026 -0500,20,2.267731,0,0,14.11,0,0,2021-03-13 00:50:58.765 -0500,637307615.7927291,0,1.039999,99.51485,1,0.92
2021-03-13 00:53:36.273 -0500,0,0,0,0,0,0,0,0,0,11373.93663241667,-0.0353851318359375,-0.001068115234375,-0.985107421875,11373.91148541667,0.2881803673148374,-0.02429580660034003,0.00604874930930395,-0.05096695199608803,-0.009519031271338463,0.06980357319116592,0.0002755653113126755,-0.008035225793719292,0.016501784324646,XArbitraryZVertical,0.004737099441305033,-0.01158741957880683,0.1435444887495816,0.9895647093367407,-0.0242929719388485,-0.006048712413758039,-0.999686598777771,0,0,0,-1,-1,11365.78026116667,unknown,2,2021-03-13 00:53:28.069 -0500,2021-03-13 00:47:42.026 -0500,20,2.267731,0,0,14.11,0,0,2021-03-13 00:50:58.765 -0500,637307615.7927291,0,1.039999,99.51485,1,0.92
2021-03-13 00:53:36.278 -0500,0,0,0,0,0,0,0,0,0,11373.97181941667,-0.03753662109375,0.01605224609375,-0.9871826171875,11373.94166741667,0.2901567811492705,-0.02368364658489468,0.004695725892612058,-0.05056114494800568,0.03283155709505081,0.06057453900575638,-0.01170403324067593,0.003627518657594919,0.01460117101669312,XArbitraryZVertical,0.004034960196057768,-0.01137770725340408,0.1445319510148118,0.9894265002394799,-0.02368117123842239,-0.004695708863437176,-0.9997085332870483,0,0,0,-1,-1,11365.78026116667,unknown,2,2021-03-13 00:53:28.069 -0500,2021-03-13 00:47:42.026 -0500,20,2.267731,0,0,14.11,0,0,2021-03-13 00:50:58.765 -0500,637307615.7927291,0,1.039999,99.51485,1,0.92
2021-03-13 00:53:36.342 -0500,0,0,0,0,0,0,0,0,0,11374.00703641667,-0.037628173828125,0.0193328857421875,-1.006561279296875,11374.00200041667,0.2915135149992372,-0.02049008808601177,0.001509421857217399,-0.03852447494864464,0.06486811488866806,0.0007983233081176877,-0.02109164372086525,0.02607599645853043,0.001955687999725342,XArbitraryZVertical,0.002234645114474204,-0.01002661906386056,0.1452258936995677,0.9893451725465793,-0.02048863098025322,-0.001509421272203326,-0.9997889399528503,0,0,0,-1,-1,11365.78026116667,unknown,2,2021-03-13 00:53:28.069 -0500,2021-03-13 00:47:42.026 -0500,20,2.267731,0,0,14.11,0,0,2021-03-13 00:50:58.765 -0500,637307615.7927291,0,1.039999,99.51485,1,0.92
2021-03-13 00:53:36.351 -0500,0,0,0,0,0,0,0,0,0,11374.04222341667,-0.039276123046875,0.0043182373046875,-1.010467529296875,11374.03218241667,0.2913217267717951,-0.01938415872011877,0.0003552632447744328,-0.04533816128969193,0.03142723441123962,-0.01070901192724705,-0.01922186650335789,0.008930627256631851,-0.01068598031997681,XArbitraryZVertical,0.001582489668692273,-0.009563509935612296,0.1451377944234481,0.9893640310119661,-0.01938294433057308,-0.0003552632406353951,-0.9998120665550232,0,0,0,-1,-1,11365.78026116667,unknown,2,2021-03-13 00:53:28.069 -0500,2021-03-13 00:47:42.026 -0500,20,2.267731,0,0,14.11,0,0,2021-03-13 00:50:58.765 -0500,637307615.7927291,0,1.039999,99.51485,1,0.92
2021-03-13 00:53:36.368 -0500,0,0,0,0,0,0,0,0,0,11374.07740941667,-0.0361175537109375,0.0087432861328125,-1.00677490234375,11374.06233441667,0.2909819264407083,-0.01908083785570335,-0.001475354803466078,-0.04891534149646759,0.01905904151499271,-0.0109875462949276,-0.02109680697321892,0.000569248222745955,-0.00994873046875,XArbitraryZVertical,0.0006532811255143459,-0.009546419290876849,0.1449785468842549,0.9893885455680171,-0.01907965913414955,0.001475354307331145,-0.99981689453125,0,0,0,-1,-1,11365.78026116667,unknown,2,2021-03-13 00:53:28.069 -0500,2021-03-13 00:47:42.026 -0500,20,2.267731,0,0,14.11,0,0,2021-03-13 00:50:58.765 -0500,637307615.7927291,0,1.039999,99.51485,1,0.92
2021-03-13 00:53:36.407 -0500,0,0,0,0,0,0,0,0,0,11374.11262741667,-0.0280303955078125,0.0049285888671875,-1.003662109375,11374.09251641667,0.290353247894009,-0.0194605828845679,-0.003070310903513351,-0.01389516238123178,0.01446959562599659,-0.02172369882464409,-0.02006107568740845,0.001003715442493558,-0.006526470184326172,XArbitraryZVertical,-0.0001113034171665824,-0.009849845632635896,0.1446749661048796,0.9894301503509132,-0.01945926249027252,0.003070306032896042,-0.9998059272766113,0,0,0,-1,-1,11365.78026116667,unknown,2,2021-03-13 00:53:28.069 -0500,2021-03-13 00:47:42.026 -0500,20,2.267731,0,0,14.11,0,0,2021-03-13 00:50:58.765 -0500,637307615.7927291,0,1.039999,99.51485,1,0.92
2021-03-13 00:53:36.439 -0500,0,0,0,0,0,0,0,0,0,11374.14781341667,-0.0246429443359375,-0.0002593994140625,-1.0001220703125,11374.12266741667,0.2894232775798729,-0.01971211002942617,-0.003528581567010101,-0.01228503789752722,0.0001952373422682285,-0.03841729089617729,-0.007388973608613014,-0.00154500687494874,-0.001970529556274414,XArbitraryZVertical,-0.000324476022064322,-0.0100072729209774,0.1442170716841003,0.9894953842607117,-0.01971071027219296,0.00352857424877584,-0.9997994899749756,0,0,0,-1,-1,11365.78026116667,unknown,2,2021-03-13 00:53:28.069 -0500,2021-03-13 00:47:42.026 -0500,20,2.267731,0,0,14.11,0,0,2021-03-13 00:50:58.765 -0500,637307615.7927291,0,1.039999,99.51485,1,0.92
2021-03-13 00:53:36.474 -0500,0,0,0,0,0,0,0,0,0,11374.18303141667,-0.0171661376953125,-0.0064239501953125,-1.014297485351562,11374.18303141667,0.2867438799297219,-0.0206446619405959,-0.003379497960061426,0.03732132911682129,0.01862793788313866,-0.04002920165657997,0.002851255238056183,-0.004340870771557093,-0.01218169927597046,XArbitraryZVertical,-0.0001974825310771171,-0.0104576468658047,0.1428907136505083,0.9896831824450826,-0.02064307779073715,0.003379491623491049,-0.9997811913490295,0,0,0,-1,-1,11365.78026116667,unknown,2,2021-03-13 00:53:28.069 -0500,2021-03-13 00:47:42.026 -0500,20,2.267731,0,0,14.11,0,0,2021-03-13 00:50:58.765 -0500,637307615.7927291,0,1.039999,99.51485,1,0.92
2021-03-13 00:53:36.509 -0500,0,0,0,0,0,0,0,0,0,11374.21821741667,-0.0181121826171875,-0.011505126953125,-1.011260986328125,11374.21318241667,0.2856551388593372,-0.02073457960115927,-0.002318578455220444,0.03754395991563797,-0.008614909835159779,-0.0270567275583744,0.00437554344534874,-0.01055839844048023,-0.01266878843307495,XArbitraryZVertical,0.0003282552367617869,-0.01042654090354141,0.1423466069868412,0.9897619136525159,-0.02073303796350956,0.002318576443940401,-0.999782383441925,0,0,0,-1,-1,11365.78026116667,unknown,2,2021-03-13 00:53:28.069 -0500,2021-03-13 00:47:42.026 -0500,20,2.267731,0,0,14.11,0,0,2021-03-13 00:50:58.765 -0500,637307615.7927291,0,1.039999,99.51485,1,0.92
2021-03-13 00:53:36.544 -0500,0,0,0,0,0,0,0,0,0,11374.25340441667,-0.01922607421875,-0.0077056884765625,-0.996429443359375,11374.24336441667,0.284926658968232,-0.02141190544986707,-0.001197839056792282,0.03274944797158241,-0.02474081888794899,-0.01544264797121286,0.006654931232333183,-0.008049110881984234,-0.004685521125793457,XArbitraryZVertical,0.0009272042992641078,-0.01068231975275451,0.1419800994392348,0.9898114539519409,-0.02141025476157665,0.001197838806547225,-0.9997700452804565,0,0,0,-1,-1,11365.78026116667,unknown,2,2021-03-13 00:53:28.069 -0500,2021-03-13 00:47:42.026 -0500,20,2.267731,0,0,14.11,0,0,2021-03-13 00:50:58.765 -0500,637307615.7927291,0,1.039999,99.51485,1,0.92
2021-03-13 00:53:36.579 -0500,0,0,0,0,0,0,0,0,0,11374.28862141667,-0.0153961181640625,-0.00323486328125,-0.9949951171875,11374.27351541667,0.2846278914304301,-0.02197283195687786,0.0001593612767069347,0.0478418841958046,-0.0245492160320282,-0.008177129551768303,0.008177045732736588,-0.007012344896793365,0.003695368766784668,XArbitraryZVertical,0.001637086729692736,-0.01086382852544843,0.1418246160656199,0.9898308490624679,-0.02197106368839741,-0.0001593612832948565,-0.9997586011886597,0,0,0,-1,-1,11365.78026116667,unknown,2,2021-03-13 00:53:28.069 -0500,2021-03-13 00:47:42.026 -0500,20,2.267731,0,0,14.11,0,0,2021-03-13 00:50:58.765 -0500,637307615.7927291,0,1.039999,99.51485,1,0.92
2021-03-13 00:53:36.615 -0500,0,0,0,0,0,0,0,0,0,11374.32380841667,-0.0109710693359375,0.0018157958984375,-0.999664306640625,11374.30369741667,0.2847376269326275,-0.02215765628328625,0.001833917017404951,0.04411761835217476,-0.004476131871342659,0.01627942733466625,0.003829926252365112,0.003527566092088819,0.00655829906463623,XArbitraryZVertical,0.002479549109011817,-0.01083641269139307,0.1418695272070368,0.9898230008581106,-0.02215580642223358,-0.001833915943279862,-0.9997528195381165,0,0,0,-1,-1,11365.78026116667,unknown,2,2021-03-13 00:53:28.069 -0500,2021-03-13 00:47:42.026 -0500,20,2.267731,0,0,14.11,0,0,2021-03-13 00:50:58.765 -0500,637307615.7927291,0,1.039999,99.51485,1,0.92
2021-03-13 00:53:36.650 -0500,0,0,0,0,0,0,0,0,0,11374.35899541667,-0.012542724609375,-0.0064849853515625,-0.9903411865234375,11374.33387941667,0.2853301104085344,-0.02208664129787566,0.003000479960114621,0.0234683770686388,-0.0004256069660186768,0.02193515002727509,0.0110220517963171,0.008081576786935329,-0.002079427242279053,XArbitraryZVertical,0.003055030880209864,-0.01071759957625446,0.1421563738902453,0.989781426149933,-0.02208474650979042,-0.003000475466251373,-0.9997516274452209,0,0,0,-1,-1,11365.78026116667,unknown,2,2021-03-13 00:53:28.069 -0500,2021-03-13 00:47:42.026 -0500,20,2.267731,0,0,14.11,0,0,2021-03-13 00:50:58.765 -0500,637307615.7927291,0,1.039999,99.51485,1,0.92
2021-03-13 00:53:36.685 -0500,0,0,0,0,0,0,0,0,0,11374.39421241667,-0.0244903564453125,0.004180908203125,-0.9902191162109375,11374.39421241667,0.287235505172982,-0.02165890212980482,0.003121371400282319,0.003999792970716953,0.02057714760303497,0.03887037560343742,-0.0008802004158496857,0.009255324490368366,0.009877204895019531,XArbitraryZVertical,0.003094454978384838,-0.0104943768164532,0.1430992585614813,0.9896478471169037,-0.02165710367262363,-0.003121366258710623,-0.9997605681419373,0,0,0,-1,-1,11365.78026116667,unknown,2,2021-03-13 00:53:28.069 -0500,2021-03-13 00:47:42.026 -0500,20,2.267731,0,0,14.11,0,0,2021-03-13 00:50:58.765 -0500,637307615.7927291,0,1.039999,99.51485,1,0.92
2021-03-13 00:53:36.720 -0500,0,0,0,0,0,0,0,0,0,11374.42939941667,-0.020751953125,-0.003814697265625,-1.000747680664062,11374.42436441667,0.2884760860954385,-0.0206113304902261,0.00300150392744822,-0.002187341451644897,0.01778760924935341,0.03783978149294853,-0.001576574519276619,-0.005757120437920094,0.004452288150787354,XArbitraryZVertical,0.002966380733096755,-0.009982752410430396,0.1437153316907863,0.9895642361212195,-0.0206097774207592,-0.003001499455422163,-0.9997830986976624,0,0,0,-1,-1,11365.78026116667,unknown,2,2021-03-13 00:53:28.069 -0500,2021-03-13 00:47:42.026 -0500,20,2.267731,0,0,14.11,0,0,2021-03-13 00:50:58.765 -0500,637307615.7927291,0,1.039999,99.51485,1,0.92
2021-03-13 00:53:36.755 -0500,0,0,0,0,0,0,0,0,0,11374.46458641667,-0.0277099609375,-0.0076446533203125,-1.001937866210938,11374.45454641667,0.2897096671814513,-0.01995279439491068,0.002991599830194362,0.0005171322263777256,0.01195419952273369,0.04017405956983566,-0.009696519002318382,-0.007872737012803555,0.0002847909927368164,XArbitraryZVertical,0.002920115129492286,-0.009655831935955164,0.1443266696180457,0.9894787094082951,-0.01995138078927994,-0.002991595305502415,-0.999796450138092,0,0,0,-1,-1,11365.78026116667,unknown,2,2021-03-13 00:53:28.069 -0500,2021-03-13 00:47:42.026 -0500,20,2.267731,0,0,14.11,0,0,2021-03-13 00:50:58.765 -0500,637307615.7927291,0,1.039999,99.51485,1,0.92
2021-03-13 00:53:36.813 -0500,0,0,0,0,0,0,0,0,0,11374.49981804167,-0.0241241455078125,-0.003082275390625,-1.004135131835938,11374.48474204167,0.2909134278728068,-0.01947667832024713,0.002757523018576671,0.001275212503969669,0.01708848774433136,0.03795629739761353,-0.009348554536700249,-0.0004469009581953287,-0.002314448356628418,XArbitraryZVertical,0.002775630000187339,-0.009435505095754538,0.144924043909508,0.9893938733095176,-0.01947537250816822,-0.002757519483566284,-0.9998065233230591,0,0,0,-1,-1,11365.78026116667,unknown,2,2021-03-13 00:53:28.069 -0500,2021-03-13 00:47:42.026 -0500,20,2.267731,0,0,14.11,0,0,2021-03-13 00:50:58.765 -0500,637307615.7927291,0,1.039999,99.51485,1,0.92
2021-03-13 00:53:36.844 -0500,0,0,0,0,0,0,0,0,0,11374.53500504167,-0.032470703125,0.000640869140625,-1.002120971679688,11374.51489404167,0.291926627163146,-0.01950417030699108,0.002623333367605584,-0.01869449019432068,-0.006231442093849182,0.0264445636421442,-0.007032241672277451,-0.001511876238510013,-0.006083548069000244,XArbitraryZVertical,0.002716030976301886,-0.009457456476651718,0.1454258820172037,0.9893201338827563,-0.01950286701321602,-0.0026233303360641,-0.9998063445091248,0,0,0,-1,-1,11365.78026116667,unknown,2,2021-03-13 00:53:28.069 -0500,2021-03-13 00:47:42.026 -0500,20,2.267731,0,0,14.11,0,0,2021-03-13 00:50:58.765 -0500,637307615.7927291,0,1.039999,99.51485,1,0.92
2021-03-13 00:53:36.864 -0500,0,0,0,0,0,0,0,0,0,11374.57022204167,-0.030914306640625,-0.0056304931640625,-1.001327514648438,11374.54507604167,0.2925914291801311,-0.01977894562845191,0.002554063943687919,0.008181255310773849,0.004666869528591633,0.02155797928571701,-0.01362397149205208,0.002431916072964668,0.0001368522644042969,XArbitraryZVertical,0.002704936177353119,-0.009597515490288418,0.1457546897880336,0.9892704674043351,-0.01977759227156639,-0.002554061124101281,-0.9998011589050293,0,0,0,-1,-1,11365.78026116667,unknown,2,2021-03-13 00:53:28.069 -0500,2021-03-13 00:47:42.026 -0500,20,2.267731,0,0,14.11,0,0,2021-03-13 00:50:58.765 -0500,637307615.7927291,0,1.039999,99.51485,1,0.92
2021-03-13 00:53:36.896 -0500,0,0,0,0,0,0,0,0,0,11374.60540904167,-0.024322509765625,-0.006072998046875,-0.99993896484375,11374.57522704167,0.2929191309736494,-0.01998740633139738,0.002555509806727597,-0.008548123762011528,-0.002113702706992626,0.0005756329628638923,-0.01092837005853653,-0.003075060900300741,-0.00153052806854248,XArbitraryZVertical,0.002722432622926034,-0.009700075836596654,0.1459164860260172,0.9892455997585911,-0.01998601108789444,-0.002555507002398372,-0.999796986579895,0,0,0,-1,-1,11365.78026116667,unknown,2,2021-03-13 00:53:28.069 -0500,2021-03-13 00:47:42.026 -0500,20,2.267731,0,0,14.11,0,0,2021-03-13 00:50:58.765 -0500,637307615.7927291,0,1.039999,99.51485,1,0.92
2021-03-13 00:53:36.931 -0500,0,0,0,0,0,0,0,0,0,11374.64059604167,-0.0274810791015625,-0.00335693359375,-1.00048828125,11374.63559104167,0.2929594574957343,-0.02095067527307171,0.002303904252953615,-0.01199458632618189,-0.01452919561415911,-0.004922895692288876,-0.008668297901749611,-0.002701055258512497,-0.001091837882995605,XArbitraryZVertical,0.002668467194696989,-0.01019483494618526,0.1459364224981842,0.9892378863191392,-0.02094908617436886,-0.002303902292624116,-0.9997779130935669,0,0,0,-1,-1,11365.78026116667,unknown,2,2021-03-13 00:53:28.069 -0500,2021-03-13 00:47:42.026 -0500,20,2.267731,0,0,14.11,0,0,2021-03-13 00:50:58.765 -0500,637307615.7927291,0,1.039999,99.51485,1,0.92
2021-03-13 00:53:36.966 -0500,0,0,0,0,0,0,0,0,0,11374.67581304167,-0.02825927734375,-0.007568359375,-0.9995574951171875,11374.66574204167,0.2927599263769322,-0.02162951548960198,0.002002622986112701,-0.01171539910137653,-0.00984279066324234,-0.003418342676013708,-0.00557870976626873,-0.0003625655081123114,-0.001807570457458496,XArbitraryZVertical,0.002567929885489434,-0.0105528456456742,0.1458384577344984,0.9892487998964822,-0.02162778563797474,-0.002002621535211802,-0.999764084815979,0,0,0,-1,-1,11365.78026116667,unknown,2,2021-03-13 00:53:28.069 -0500,2021-03-13 00:47:42.026 -0500,20,2.267731,0,0,14.11,0,0,2021-03-13 00:50:58.765 -0500,637307615.7927291,0,1.039999,99.51485,1,0.92
2021-03-13 00:53:37.002 -0500,0,0,0,0,0,0,0,0,0,11374.71100004167,-0.02764892578125,-0.0042877197265625,-1.000778198242188,11374.69592404167,0.2924540352702293,-0.02213521399885198,0.001793621165404755,-0.01049058884382248,-0.013805759139359,-0.01416116766631603,-0.004157597199082375,-0.001563388388603926,-0.005541384220123291,XArbitraryZVertical,0.002499773855109464,-0.01081860158906213,0.1456876680905384,0.9892682629300436,-0.02213337086141109,-0.001793620176613331,-0.9997534155845642,0,0,0,-1,-1,11365.78026116667,unknown,2,2021-03-13 00:53:28.069 -0500,2021-03-13 00:47:42.026 -0500,20,2.267731,0,0,14.11,0,0,2021-03-13 00:50:58.765 -0500,637307615.7927291,0,1.039999,99.51485,1,0.92
2021-03-13 00:53:37.037 -0500,0,0,0,0,0,0,0,0,0,11374.74618704167,-0.02532958984375,-0.00457763671875,-0.99298095703125,11374.72607504167,0.2922479559817603,-0.02272381600477967,0.001959259405912898,0.00168727058917284,-0.01627829857170582,-0.01011825725436211,-0.002867246046662331,-0.009057662449777126,-0.005219161510467529,XArbitraryZVertical,0.00262343564255012,-0.01109794602292732,0.1455840391155123,0.9892801797825489,-0.02272181771695614,-0.00195925822481513,-0.9997398853302002,0,0,0,-1,-1,11365.78026116667,unknown,2,2021-03-13 00:53:28.069 -0500,2021-03-13 00:47:42.026 -0500,20,2.267731,0,0,14.11,0,0,2021-03-13 00:50:58.765 -0500,637307615.7927291,0,1.039999,99.51485,1,0.92
2021-03-13 00:53:37.072 -0500,0,0,0,0,0,0,0,0,0,11374.78140404167,-0.02105712890625,-0.0026092529296875,-0.9954071044921875,11374.75625704167,0.2917779145651522,-0.02339232009431808,0.001818921720695534,0.001932491548359394,-0.007061815820634365,-0.01443602330982685,-0.003129700198769569,-0.0007904072990640998,0.006652295589447021,XArbitraryZVertical,0.002599993146411394,-0.01143944350305352,0.1453514824717338,0.9893104657719177,-0.02339014783501625,-0.001818920718505979,-0.9997247457504272,0,0,0,-1,-1,11365.78026116667,unknown,2,2021-03-13 00:53:28.069 -0500,2021-03-13 00:47:42.026 -0500,20,2.267731,0,0,14.11,0,0,2021-03-13 00:50:58.765 -0500,637307615.7927291,0,1.039999,99.51485,1,0.92
2021-03-13 00:53:37.107 -0500,0,0,0,0,0,0,0,0,0,11374.81659104167,-0.024749755859375,0.00103759765625,-0.998565673828125,11374.78643904167,0.2913005083367706,-0.02363636011037395,0.002025967626328056,-0.0005231867544353008,-0.009884561412036419,-0.02312808111310005,0.002576909959316254,-0.0005833616014569998,0.004311561584472656,XArbitraryZVertical,0.002717388665560629,-0.01154575829218539,0.1451137794797574,0.9893438421240256,-0.02363411150872707,-0.002025966299697757,-0.9997186064720154,0,0,0,-1,-1,11365.78026116667,unknown,2,2021-03-13 00:53:28.069 -0500,2021-03-13 00:47:42.026 -0500,20,2.267731,0,0,14.11,0,0,2021-03-13 00:50:58.765 -0500,637307615.7927291,0,1.039999,99.51485,1,0.92
2021-03-13 00:53:37.143 -0500,0,0,0,0,0,0,0,0,0,11374.85177704167,-0.0244903564453125,-0.0051727294921875,-0.998992919921875,11374.84677204167,0.2903825866532864,-0.02365599375624534,0.002341045419144668,-0.01371673122048378,0.0072076884098351,-0.01053282804787159,-0.001630164682865143,-0.003808323526754975,0.0001599788665771484,XArbitraryZVertical,0.002869379061234566,-0.01153392303566387,0.1446577901073615,0.9894103906874359,-0.02365372329950333,-0.002341043204069138,-0.9997174739837646,0,0,0,-1,-1,11365.78026116667,unknown,2,2021-03-13 00:53:28.069 -0500,2021-03-13 00:47:42.026 -0500,20,2.267731,0,0,14.11,0,0,2021-03-13 00:50:58.765 -0500,637307615.7927291,0,1.039999,99.51485,1,0.92
2021-03-13 00:53:37.178 -0500,0,0,0,0,0,0,0,0,0,11374.88699504167,-0.025787353515625,-0.0081634521484375,-0.995635986328125,11374.87692404167,0.2903225698560808,-0.02332170362819753,0.002118478176359408,0.004481714218854904,0.01942920126020908,0.00832741241902113,0.002125006169080734,0.002438836265355349,0.003464221954345703,XArbitraryZVertical,0.002734753827644998,-0.01138473133399715,0.1446298842407781,0.9894165403386067,-0.02331953682005405,-0.002118476666510105,-0.9997258186340332,0,0,0,-1,-1,11365.78026116667,unknown,2,2021-03-13 00:53:28.069 -0500,2021-03-13 00:47:42.026 -0500,20,2.267731,0,0,14.11,0,0,2021-03-13 00:50:58.765 -0500,637307615.7927291,0,1.039999,99.51485,1,0.92
2021-03-13 00:53:37.213 -0500,0,0,0,0,0,0,0,0,0,11374.92218104167,-0.0152130126953125,0.0047760009765625,-1.001998901367188,11374.90710604167,0.2909312583828838,-0.0228953753804647,0.002125412324175638,-0.004777608904987574,0.009315825998783112,0.02438008226454258,0.002934753894805908,-0.003627227619290352,0.004343807697296143,XArbitraryZVertical,0.002710754712737171,-0.01117249706084118,0.1449315428544931,0.9893748725931087,-0.02289332263171673,-0.002125410828739405,-0.9997356534004211,0,0,0,-1,-1,11365.78026116667,unknown,2,2021-03-13 00:53:28.069 -0500,2021-03-13 00:47:42.026 -0500,20,2.267731,0,0,14.11,0,0,2021-03-13 00:50:58.765 -0500,637307615.7927291,0,1.039999,99.51485,1,0.92
2021-03-13 00:53:37.248 -0500,0,0,0,0,0,0,0,0,0,11374.95739904167,-0.02020263671875,-0.001617431640625,-1.000518798828125,11374.93728804167,0.2914523115551088,-0.02308943928532916,0.00181173101206508,-0.00615248829126358,-0.00597073882818222,0.01271500438451767,0.003586543723940849,0.00374952144920826,-0.003289401531219482,XArbitraryZVertical,0.002572585810944844,-0.01129056302941933,0.1451908475776302,0.9893358719115848,-0.02308735065162182,-0.001811729976907372,-0.9997318387031555,0,0,0,-1,-1,11365.78026116667,unknown,2,2021-03-13 00:53:28.069 -0500,2021-03-13 00:47:42.026 -0500,20,2.267731,0,0,14.11,0,0,2021-03-13 00:50:58.765 -0500,637307615.7927291,0,1.039999,99.51485,1,0.92
2021-03-13 00:53:37.283 -0500,0,0,0,0,0,0,0,0,0,11374.99258504167,-0.0229339599609375,-0.0042724609375,-0.9979400634765625,11374.96743904167,0.2918076826808101,-0.02313616293060589,0.00152284034651991,-0.01379862427711487,0.009343215264379978,0.01060714479535818,0.003053432330489159,-0.0005676893051713705,-0.0007265210151672363,XArbitraryZVertical,0.002435087243977829,-0.01133421832093702,0.1453682477251202,0.9893096609051814,-0.02313407137989998,-0.001522839767858386,-0.999731183052063,0,0,0,-1,-1,11365.78026116667,unknown,2,2021-03-13 00:53:28.069 -0500,2021-03-13 00:47:42.026 -0500,20,2.267731,0,0,14.11,0,0,2021-03-13 00:50:58.765 -0500,637307615.7927291,0,1.039999,99.51485,1,0.92
2021-03-13 00:53:37.368 -0500,0,0,0,0,0,0,0,0,0,11375.02777204167,-0.0312652587890625,-0.0026092529296875,-0.999359130859375,11375.02777204167,0.292907330413783,-0.02261131091598693,0.000376384433912388,-0.00799708254635334,0.01916120573878288,0.02877213433384895,-0.008335515856742859,-0.003087435616180301,0.001071810722351074,XArbitraryZVertical,0.001835972527873301,-0.01115692651775722,0.1459192519402622,0.9892318955557672,-0.02260938286781311,-0.0003763844142667949,-0.9997442960739136,0,0,0,-1,-1,11365.78026116667,unknown,2,2021-03-13 00:53:28.069 -0500,2021-03-13 00:47:42.026 -0500,20,2.267731,0,0,14.11,0,0,2021-03-13 00:50:58.765 -0500,637307615.7927291,0,1.039999,99.51485,1,0.92
2021-03-13 00:53:37.374 -0500,0,0,0,0,0,0,0,0,0,11375.06299004167,-0.0322723388671875,-0.00714111328125,-1.002273559570312,11375.05795404167,0.2936597030575239,-0.02226609499739396,0.0005099254536319199,0.01069602277129889,0.001218279357999563,0.02480665408074856,-0.005461042746901512,-0.0009855106472969055,-0.0032692551612854,XArbitraryZVertical,0.001880966184655338,-0.01097572652022262,0.1462909510927106,0.9891789669171238,-0.02226425148546696,-0.0005099254194647074,-0.9997519850730896,0,0,0,-1,-1,11365.78026116667,unknown,2,2021-03-13 00:53:28.069 -0500,2021-03-13 00:47:42.026 -0500,20,2.267731,0,0,14.11,0,0,2021-03-13 00:50:58.765 -0500,637307615.7927291,0,1.039999,99.51485,1,0.92
2021-03-13 00:53:37.389 -0500,0,0,0,0,0,0,0,0,0,11375.09817604167,-0.0286865234375,0.01495361328125,-1.006378173828125,11375.08813604167,0.2944242492300116,-0.02228500783646488,0.0007602309114150641,-0.003529395908117294,-0.00571097806096077,0.01203215308487415,-0.005289547145366669,-0.006564062554389238,-0.01039564609527588,XArbitraryZVertical,0.00201034016225502,-0.01096600367332363,0.1466676772877013,0.989123007300979,-0.02228315733373165,-0.0007602308178320527,-0.9997513890266418,0,0,0,-1,-1,11365.78026116667,unknown,2,2021-03-13 00:53:28.069 -0500,2021-03-13 00:47:42.026 -0500,20,2.267731,0,0,14.11,0,0,2021-03-13 00:50:58.765 -0500,637307615.7927291,0,1.039999,99.51485,1,0.92
2021-03-13 00:53:37.424 -0500,0,0,0,0,0,0,0,0,0,11375.13336304167,-0.03302001953125,0.017852783203125,-1.008956909179688,11375.11828704167,0.2945955183162274,-0.0225463412993336,0.001369868320540216,0.03288111090660095,0.008093107491731644,-0.00873635895550251,-0.01685385592281818,0.01856644824147224,-0.008006513118743896,XArbitraryZVertical,0.002331953744784242,-0.01105034016581713,0.1467487043870211,0.9891092623860881,-0.02254441007971764,-0.001369867939502001,-0.9997448921203613,0,0,0,-1,-1,11365.78026116667,unknown,2,2021-03-13 00:53:28.069 -0500,2021-03-13 00:47:42.026 -0500,20,2.267731,0,0,14.11,0,0,2021-03-13 00:50:58.765 -0500,637307615.7927291,0,1.039999,99.51485,1,0.92
2021-03-13 00:53:37.459 -0500,0,0,0,0,0,0,0,0,0,11375.16858004167,-0.0395660400390625,0.01226806640625,-1.017913818359375,11375.14846904167,0.2938299160184756,-0.02291692830094965,0.001948871741103727,0.003082833252847195,-0.02696771547198296,-0.04617822170257568,-0.01219566911458969,0.01917596906423569,-0.01450091600418091,XArbitraryZVertical,0.002641208306927031,-0.01119213800594934,0.1463663037037638,0.9891636026355486,-0.02291487902402878,-0.001948870485648513,-0.9997355341911316,0,0,0,-1,-1,11365.78026116667,unknown,2,2021-03-13 00:53:28.069 -0500,2021-03-13 00:47:42.026 -0500,20,2.267731,0,0,14.11,0,0,2021-03-13 00:50:58.765 -0500,637307615.7927291,0,1.039999,99.51485,1,0.92
2021-03-13 00:53:37.494 -0500,0,0,0,0,0,0,0,0,0,11375.20376704167,-0.039642333984375,-0.0057525634765625,-1.006332397460938,11375.17862104167,0.2920201688480977,-0.02421986850308957,0.002100451032607803,0.001865723170340061,-0.05032992735505104,-0.06665227562189102,-0.01463150233030319,0.0118659995496273,-0.01762944459915161,XArbitraryZVertical,0.002800826812911617,-0.01182799057090945,0.1454685109495912,0.9892882013123391,-0.02421744726598263,-0.002100449521094561,-0.9997044801712036,0,0,0,-1,-1,11365.78026116667,unknown,2,2021-03-13 00:53:28.069 -0500,2021-03-13 00:47:42.026 -0500,20,2.267731,0,0,14.11,0,0,2021-03-13 00:50:58.765 -0500,637307615.7927291,0,1.039999,99.51485,1,0.92
2021-03-13 00:53:37.530 -0500,0,0,0,0,0,0,0,0,0,11375.23898404167,-0.03082275390625,-0.0092315673828125,-1.016754150390625,11375.23898404167,0.2889848243033375,-0.02871002579601153,0.001753383697032339,0.0430838018655777,-0.07653838396072388,-0.02829845808446407,-0.002009978517889977,-0.005143665242940187,-0.02092146873474121,XArbitraryZVertical,0.002934375473212435,-0.01407870640256939,0.1439628125909153,0.9894785439584461,-0.02870603837072849,-0.001753382850438356,-0.9995863437652588,0,0,0,-1,-1,11365.78026116667,unknown,2,2021-03-13 00:53:28.069 -0500,2021-03-13 00:47:42.026 -0500,20,2.267731,0,0,14.11,0,0,2021-03-13 00:50:58.765 -0500,637307615.7927291,0,1.039999,99.51485,1,0.92
2021-03-13 00:53:37.565 -0500,0,0,0,0,0,0,0,0,0,11375.27417104167,-0.0253448486328125,-0.0274200439453125,-1.013427734375,11375.26913604167,0.2887095122180706,-0.03105811305196264,0.003380286135228744,0.06463320553302765,-0.07476307451725006,0.006247750017791986,0.002976696938276291,-0.01493034232407808,-0.01011627912521362,XArbitraryZVertical,0.003906183670012519,-0.01512379314835971,0.1438103971031913,0.9894820299850342,-0.03105294331908226,-0.003380279755219817,-0.9995120167732239,0,0,0,-1,-1,11365.78026116667,unknown,2,2021-03-13 00:53:28.069 -0500,2021-03-13 00:47:42.026 -0500,20,2.267731,0,0,14.11,0,0,2021-03-13 00:50:58.765 -0500,637307615.7927291,0,1.039999,99.51485,1,0.92
2021-03-13 00:53:37.600 -0500,0,0,0,0,0,0,0,0,0,11375.30935804167,-0.0254974365234375,-0.01220703125,-0.98883056640625,11375.29931804167,0.2891829619130651,-0.03369320754145789,0.005143623090914528,0.06009088456630707,-0.08660347759723663,0.01869561523199081,0.007105503231287003,-0.02265798859298229,0.003355979919433594,XArbitraryZVertical,0.004971884739843345,-0.01629944960972929,0.1440244001080375,0.9894273328261735,-0.03368638828396797,-0.005143600516021252,-0.9994192123413086,0,0,0,-1,-1,11365.78026116667,unknown,2,2021-03-13 00:53:28.069 -0500,2021-03-13 00:47:42.026 -0500,20,2.267731,0,0,14.11,0,0,2021-03-13 00:50:58.765 -0500,637307615.7927291,0,1.039999,99.51485,1,0.92
2021-03-13 00:53:37.635 -0500,0,0,0,0,0,0,0,0,0,11375.34457504167,-0.0218048095703125,-0.020538330078125,-0.9958953857421875,11375.32946904167,0.2899023138961305,-0.03575258578256221,0.007071919580101615,0.0418904721736908,-0.057769775390625,0.03111774474382401,0.00701170414686203,-0.01426000148057938,0.02191901206970215,XArbitraryZVertical,0.006080283498945765,-0.01717710559844786,0.1443575792393854,0.9893577660100581,-0.0357440747320652,-0.00707186060026288,-0.9993359446525574,0,0,0,-1,-1,11365.78026116667,unknown,2,2021-03-13 00:53:28.069 -0500,2021-03-13 00:47:42.026 -0500,20,2.267731,0,0,14.11,0,0,2021-03-13 00:50:58.765 -0500,637307615.7927291,0,1.039999,99.51485,1,0.92
2021-03-13 00:53:37.670 -0500,0,0,0,0,0,0,0,0,0,11375.37976204167,-0.0342254638671875,-0.00494384765625,-0.98370361328125,11375.35965104167,0.2906073742309234,-0.03753998445548611,0.007670705475135706,0.003521866165101528,-0.06785352528095245,0.02140799351036549,0.01439766585826874,0.001475486904382706,0.004972875118255615,XArbitraryZVertical,0.006511841101781809,-0.01801573477765578,0.1446951347665339,0.9892907699541933,-0.03753006458282471,-0.007670630235224962,-0.9992660880088806,0,0,0,-1,-1,11365.78026116667,unknown,2,2021-03-13 00:53:28.069 -0500,2021-03-13 00:47:42.026 -0500,20,2.267731,0,0,14.11,0,0,2021-03-13 00:50:58.765 -0500,637307615.7927291,0,1.039999,99.51485,1,0.92
2021-03-13 00:53:37.706 -0500,0,0,0,0,0,0,0,0,0,11375.41494904167,-0.038421630859375,-0.01824951171875,-0.9858245849609375,11375.38983304167,0.2915188202704347,-0.03861179199050191,0.0091777234737008,0.03843579441308975,-0.03038989752531052,0.03323619067668915,0.004252970218658447,0.001792267896234989,0.01752316951751709,XArbitraryZVertical,0.007343197223111635,-0.01843340890251959,0.1451275834347399,0.9892139873774105,-0.03860057145357132,-0.009177594445645809,-0.9992125630378723,0,0,0,-1,-1,11365.78026116667,unknown,2,2021-03-13 00:53:28.069 -0500,2021-03-13 00:47:42.026 -0500,20,2.267731,0,0,14.11,0,0,2021-03-13 00:50:58.765 -0500,637307615.7927291,0,1.039999,99.51485,1,0.92
2021-03-13 00:53:37.741 -0500,0,0,0,0,0,0,0,0,0,11375.45016604167,-0.0416259765625,-0.0059051513671875,-0.983184814453125,11375.41998404167,0.2926043956754431,-0.03879610911526022,0.01031325132752421,0.007991350255906582,-0.01246065739542246,0.03400562703609467,0.0003626123070716858,-0.007936517708003521,0.01336979866027832,XArbitraryZVertical,0.007928203938992018,-0.01843777182588715,0.1456525176232812,0.9891322420441314,-0.03878431394696236,-0.01031306851655245,-0.9991943836212158,0,0,0,-1,-1,11365.78026116667,unknown,2,2021-03-13 00:53:28.069 -0500,2021-03-13 00:47:42.026 -0500,20,2.267731,0,0,14.11,0,0,2021-03-13 00:50:58.765 -0500,637307615.7927291,0,1.039999,99.51485,1,0.92
2021-03-13 00:53:37.776 -0500,0,0,0,0,0,0,0,0,0,11375.48535304167,-0.044403076171875,0.0018463134765625,-0.98614501953125,11375.48031704167,0.293520395202409,-0.03842517544998715,0.01053491770705575,0.008903825655579567,0.008564875461161137,-0.01127162203192711,-0.005135070532560349,0.01119077578186989,0.007354617118835449,XArbitraryZVertical,0.0080191684273501,-0.01823448466111224,0.1461048064802513,0.9890685479710063,-0.03841358795762062,-0.01053472328931093,-0.9992063641548157,0,0,0,-1,-1,11365.78026116667,unknown,2,2021-03-13 00:53:28.069 -0500,2021-03-13 00:47:42.026 -0500,20,2.267731,0,0,14.11,0,0,2021-03-13 00:50:58.765 -0500,637307615.7927291,0,1.039999,99.51485,1,0.92
2021-03-13 00:53:37.832 -0500,0,0,0,0,0,0,0,0,0,11375.520523625,-0.0496368408203125,-0.0229644775390625,-0.9934234619140625,11375.510482625,0.2931318779847384,-0.0380431653053377,0.01072441516216145,-0.009644779376685619,0.01021579001098871,-0.01488866098225117,-0.008522838354110718,-0.001528671011328697,0.007779181003570557,XArbitraryZVertical,0.008081469634559952,-0.01803327588703815,0.1459123467214792,0.9891000968322321,-0.03803180158138275,-0.01072420924901962,-0.9992190003395081,0,0,0,-1,-1,11365.78026116667,unknown,2,2021-03-13 00:53:28.069 -0500,2021-03-13 00:47:42.026 -0500,20,2.267731,0,0,14.11,0,0,2021-03-13 00:50:58.765 -0500,637307615.7927291,0,1.039999,99.51485,1,0.92
2021-03-13 00:53:37.846 -0500,0,0,0,0,0,0,0,0,0,11375.555740625,-0.0452728271484375,-0.023956298828125,-1.006011962890625,11375.540664625,0.2929621484137964,-0.0378428385928359,0.01004530573910639,-0.02126496285200119,0.002030789852142334,0.01236208528280258,-0.01224751770496368,-0.01989268139004707,0.008404195308685303,XArbitraryZVertical,0.007729482702354166,-0.01798447167866546,0.1458358174489761,0.9891151609901259,-0.03783189877867699,-0.0100451372563839,-0.999233603477478,0,0,0,-1,-1,11365.78026116667,unknown,2,2021-03-13 00:53:28.069 -0500,2021-03-13 00:47:42.026 -0500,20,2.267731,0,0,14.11,0,0,2021-03-13 00:50:58.765 -0500,637307615.7927291,0,1.039999,99.51485,1,0.92
2021-03-13 00:53:37.881 -0500,0,0,0,0,0,0,0,0,0,11375.590927625,-0.034332275390625,-0.012451171875,-0.9813995361328125,11375.570816625,0.2933594364585745,-0.03816444583122267,0.00927229036982352,0.01287156995385885,0.009985979646444321,0.03942133113741875,-0.01178854703903198,-0.01425696909427643,0.01395362615585327,XArbitraryZVertical,0.007374259335985962,-0.01819849816806755,0.146038617852935,0.9890840476257746,-0.03815354034304619,-0.009272157214581966,-0.9992288947105408,0,0,0,-1,-1,11365.78026116667,unknown,2,2021-03-13 00:53:28.069 -0500,2021-03-13 00:47:42.026 -0500,20,2.267731,0,0,14.11,0,0,2021-03-13 00:50:58.765 -0500,637307615.7927291,0,1.039999,99.51485,1,0.92
2021-03-13 00:53:37.918 -0500,0,0,0,0,0,0,0,0,0,11375.626144625,-0.04522705078125,-0.0136566162109375,-1.026153564453125,11375.600997625,0.2940109044302764,-0.03719191091387655,0.00960230883919449,-0.03089257702231407,0.01991383358836174,0.0001764251210261136,0.0124775692820549,-5.67268580198288e-05,0.01476532220840454,XArbitraryZVertical,0.007472213916965395,-0.01769097840896465,0.1463612233803796,0.9890447414361834,-0.03718162328004837,-0.00960216112434864,-0.9992623925209045,0,0,0,-1,-1,11365.78026116667,unknown,2,2021-03-13 00:53:28.069 -0500,2021-03-13 00:47:42.026 -0500,20,2.267731,0,0,14.11,0,0,2021-03-13 00:50:58.765 -0500,637307615.7927291,0,1.039999,99.51485,1,0.92
2021-03-13 00:53:37.952 -0500,0,0,0,0,0,0,0,0,0,11375.661331625,-0.04168701171875,-0.0174560546875,-0.9983978271484375,11375.631149625,0.2938336230630375,-0.03738138810786006,0.008859795289267254,-0.05994302779436111,-0.005471826530992985,0.004954635631293058,-0.00785590335726738,-0.004797010682523251,-0.02689135074615479,XArbitraryZVertical,0.007117319068889121,-0.01783971220266314,0.1462799610070374,0.9890566977894594,-0.03737121447920799,-0.008859679102897644,-0.9992621541023254,0,0,0,-1,-1,11365.78026116667,unknown,2,2021-03-13 00:53:28.069 -0500,2021-03-13 00:47:42.026 -0500,20,2.267731,0,0,14.11,0,0,2021-03-13 00:50:58.765 -0500,637307615.7927291,0,1.039999,99.51485,1,0.92
2021-03-13 00:53:37.987 -0500,0,0,0,0,0,0,0,0,0,11375.696517625,-0.031036376953125,-0.028076171875,-0.978668212890625,11375.691513625,0.295200481184109,-0.03702786600792804,0.007546958187678364,-0.02044443041086197,0.03447771817445755,0.04190804064273834,0.003403164446353912,-0.0230012834072113,0.02173179388046265,XArbitraryZVertical,0.00645437607597266,-0.01775660244692284,0.1469695489207189,0.9889605207464461,-0.03701835125684738,-0.007546886336058378,-0.9992861151695251,0,0,0,-1,-1,11365.78026116667,unknown,2,2021-03-13 00:53:28.069 -0500,2021-03-13 00:47:42.026 -0500,20,2.267731,0,0,14.11,0,0,2021-03-13 00:50:58.765 -0500,637307615.7927291,0,1.039999,99.51485,1,0.92
2021-03-13 00:53:38.022 -0500,0,0,0,0,0,0,0,0,0,11375.731735625,-0.031494140625,-0.0250396728515625,-1.009597778320312,11375.721664625,0.2965085881811001,-0.03627674893407326,0.006414641118136691,-0.05729593336582184,0.02454328909516335,0.05104423314332962,0.006116606295108795,-0.01490200590342283,0.004890978336334229,XArbitraryZVertical,0.005850702330214901,-0.01746464916669861,0.147629218059536,0.9888712050512588,-0.03626804798841476,-0.006414596922695637,-0.9993215203285217,0,0,0,-1,-1,11365.78026116667,unknown,2,2021-03-13 00:53:28.069 -0500,2021-03-13 00:47:42.026 -0500,20,2.267731,0,0,14.11,0,0,2021-03-13 00:50:58.765 -0500,637307615.7927291,0,1.039999,99.51485,1,0.92
2021-03-13 00:53:38.057 -0500,0,0,0,0,0,0,0,0,0,11375.766921625,-0.0358123779296875,-0.02484130859375,-0.9947052001953125,11375.751846625,0.2984350819437993,-0.03605439840323628,0.004940416374053442,-0.05663034319877625,0.01114636100828648,0.07777215540409088,0.003850031644105911,-0.01442308165132999,-0.02036112546920776,XArbitraryZVertical,0.005122209304086738,-0.01745868450942337,0.1485957782263281,0.9887305748702749,-0.03604614734649658,-0.004940396174788475,-0.999337911605835,0,0,0,-1,-1,11365.78026116667,unknown,2,2021-03-13 00:53:28.069 -0500,2021-03-13 00:47:42.026 -0500,20,2.267731,0,0,14.11,0,0,2021-03-13 00:50:58.765 -0500,637307615.7927291,0,1.039999,99.51485,1,0.92
2021-03-13 00:53:38.092 -0500,0,0,0,0,0,0,0,0,0,11375.802108625,-0.0273590087890625,-0.0145721435546875,-0.952606201171875,11375.781997625,0.3013482805518378,-0.03533752183626052,0.004118797904760937,-0.04826322197914124,0.04882502928376198,0.113286204636097,0.001836750656366348,-0.01953241042792797,0.01958513259887695,XArbitraryZVertical,0.004687766881628401,-0.01715855303060953,0.150044948797062,0.9885191515554997,-0.03532986715435982,-0.004118786193430424,-0.9993672370910645,0,0,0,-1,-1,11365.78026116667,unknown,2,2021-03-13 00:53:28.069 -0500,2021-03-13 00:47:42.026 -0500,20,2.267731,0,0,14.11,0,0,2021-03-13 00:50:58.765 -0500,637307615.7927291,0,1.039999,99.51485,1,0.92
2021-03-13 00:53:38.128 -0500,0,0,0,0,0,0,0,0,0,11375.837326625,-0.03363037109375,0.020233154296875,-0.9735565185546875,11375.812179625,0.3046822203610641,-0.03281678913943817,0.002509942926714893,-0.1025369241833687,0.1060726046562195,0.1040793061256409,0.002125296741724014,-0.006416525226086378,0.0468674898147583,XArbitraryZVertical,0.003730171319105072,-0.01602720053967808,0.1517116372644928,0.9882878465759596,-0.03281079605221748,-0.00250994018279016,-0.9994584321975708,0,0,0,-1,-1,11365.78026116667,unknown,2,2021-03-13 00:53:28.069 -0500,2021-03-13 00:47:42.026 -0500,20,2.267731,0,0,14.11,0,0,2021-03-13 00:50:58.765 -0500,637307615.7927291,0,1.039999,99.51485,1,0.92
2021-03-13 00:53:38.163 -0500,0,0,0,0,0,0,0,0,0,11375.872512625,-0.024871826171875,0.0335540771484375,-1.022750854492188,11375.872512625,0.3105723928534671,-0.02409318912817841,0.0002308552978139594,-0.01895268261432648,0.1889893859624863,0.09267930686473846,-0.002078039571642876,0.02971076220273972,-0.01084929704666138,XArbitraryZVertical,0.001977146153589803,-0.01188350260434027,0.1546502616473119,0.9878958272169677,-0.02409085817635059,-0.000230855293921195,-0.9997097253799438,0,0,0,-1,-1,11365.78026116667,unknown,2,2021-03-13 00:53:28.069 -0500,2021-03-13 00:47:42.026 -0500,20,2.267731,0,0,14.11,0,0,2021-03-13 00:50:58.765 -0500,637307615.7927291,0,1.039999,99.51485,1,0.92
2021-03-13 00:53:38.198 -0500,0,0,0,0,0,0,0,0,0,11375.907699625,-0.0302886962890625,0.0040435791015625,-1.029571533203125,11375.902694625,0.313371398416154,-0.01882369289144211,-0.000316993357064802,-0.05515040084719658,0.1782238483428955,0.08742673695087433,-0.01157300360500813,0.00769379734992981,-0.02248555421829224,XArbitraryZVertical,0.001312105048592129,-0.009321144140014911,0.1560399236910846,0.9877059354615745,-0.01882258057594299,0.0003169933625031263,-0.9998227953910828,0,0,0,-1,-1,11365.78026116667,unknown,2,2021-03-13 00:53:28.069 -0500,2021-03-13 00:47:42.026 -0500,20,2.267731,0,0,14.11,0,0,2021-03-13 00:50:58.765 -0500,637307615.7927291,0,1.039999,99.51485,1,0.92
2021-03-13 00:53:38.234 -0500,0,0,0,0,0,0,0,0,0,11375.942916625,-0.0396728515625,0.0082244873046875,-1.028457641601562,11375.932846625,0.315878432252345,-0.0144443501894961,-0.003370992192925307,-0.08771229535341263,0.1617452949285507,0.08557165414094925,-0.01502103172242641,0.01736563444137573,-0.0325654149055481,XArbitraryZVertical,-0.0005285566759189887,-0.007397305253414901,0.1572910940444704,0.9875245016107953,-0.01444376539438963,0.003370985854417086,-0.9998900294303894,0,0,0,-1,-1,11365.78026116667,unknown,2,2021-03-13 00:53:28.069 -0500,2021-03-13 00:47:42.026 -0500,20,2.267731,0,0,14.11,0,0,2021-03-13 00:50:58.765 -0500,637307615.7927291,0,1.039999,99.51485,1,0.92
2021-03-13 00:53:38.269 -0500,0,0,0,0,0,0,0,0,0,11375.978103625,-0.0353240966796875,0.0047149658203125,-1.022308349609375,11375.963027625,0.3185024773106372,-0.01049109202002458,-0.00697312879041172,-0.1087980940937996,0.117776520550251,0.08189788460731506,-0.02080520987510681,0.0029755849391222,-0.02772825956344604,XArbitraryZVertical,-0.002610567703065187,-0.005732002032488264,0.1585938713009197,0.9873238469119808,-0.01049064472317696,0.006973072420805693,-0.999920666217804,0,0,0,-1,-1,11365.78026116667,unknown,2,2021-03-13 00:53:28.069 -0500,2021-03-13 00:47:42.026 -0500,20,2.267731,0,0,14.11,0,0,2021-03-13 00:50:58.765 -0500,637307615.7927291,0,1.039999,99.51485,1,0.92
2021-03-13 00:53:38.327 -0500,0,0,0,0,0,0,0,0,0,11376.013320625,-0.0181427001953125,-0.0012969970703125,-1.04180908203125,11375.993209625,0.3213701231466516,-0.00792466685780613,-0.01010837162623042,-0.07639504969120026,0.08832177519798279,0.1035146862268448,-0.02392099052667618,-0.006675045005977154,-0.03810739517211914,XArbitraryZVertical,-0.004355075152775088,-0.004719862034843134,0.1600109467886295,0.9870943664009204,-0.00792417861521244,0.01010819990187883,-0.9999175071716309,0,0,0,-1,-1,11365.78026116667,unknown,2,2021-03-13 00:53:28.069 -0500,2021-03-13 00:47:42.026 -0500,20,2.267731,0,0,14.11,0,0,2021-03-13 00:50:58.765 -0500,637307615.7927291,0,1.039999,99.51485,1,0.92
2021-03-13 00:53:38.364 -0500,0,0,0,0,0,0,0,0,0,11376.048507625,-0.0147705078125,-0.0008697509765625,-1.034774780273438,11376.023361625,0.32458212006023,-0.00626611773031671,-0.0122829443309413,-0.05929755419492722,0.05132327973842621,0.1143026202917099,-0.008779639378190041,-0.009597161784768105,-0.04153794050216675,XArbitraryZVertical,-0.005554475507407168,-0.004084151574413056,0.1615947331919277,0.9868331127371469,-0.006265603937208652,0.01228263508528471,-0.9999049305915833,0,0,0,-1,-1,11365.78026116667,unknown,2,2021-03-13 00:53:28.069 -0500,2021-03-13 00:47:42.026 -0500,20,2.267731,0,0,14.11,0,0,2021-03-13 00:50:58.765 -0500,637307615.7927291,0,1.039999,99.51485,1,0.92
2021-03-13 00:53:38.374 -0500,0,0,0,0,0,0,0,0,0,11376.083694625,-0.009735107421875,-0.011749267578125,-0.9956817626953125,11376.083694625,0.3319805981174778,-0.006488358954875886,-0.01527511645752084,-0.004197561182081699,0.007432479411363602,0.1417557597160339,-0.004437814466655254,-0.02720696851611137,-0.0002292394638061523,XArbitraryZVertical,-0.006996452446002449,-0.004461417923808489,0.1652478471238885,0.9862171675687773,-0.006487556267529726,0.01527452282607555,-0.9998623132705688,0,0,0,-1,-1,11365.78026116667,unknown,2,2021-03-13 00:53:28.069 -0500,2021-03-13 00:47:42.026 -0500,20,2.267731,0,0,14.11,0,0,2021-03-13 00:50:58.765 -0500,637307618.3664273,0,1.039999,99.51492,1,0.92
2021-03-13 00:53:38.409 -0500,0,0,0,0,0,0,0,0,0,11376.118911625,0.0238800048828125,-0.0199127197265625,-0.987457275390625,11376.113876625,0.3362128937950942,-0.006465062043689517,-0.01433161039711986,0.02372044324874878,0.01526540983468294,0.1404514908790588,0.02042606845498085,-0.02289137244224548,-0.008683741092681885,XArbitraryZVertical,-0.006523855148429567,-0.004385811359966,0.1673334500932032,0.9858690613037698,-0.006464353296905756,0.01433112006634474,-0.9998763799667358,0,0,0,-1,-1,11365.78026116667,unknown,2,2021-03-13 00:53:28.069 -0500,2021-03-13 00:47:42.026 -0500,20,2.267731,0,0,14.11,0,0,2021-03-13 00:50:58.765 -0500,637307618.3664273,0,1.039999,99.51492,1,0.92
2021-03-13 00:53:38.445 -0500,0,0,0,0,0,0,0,0,0,11376.154098625,0.0140533447265625,0.0498504638671875,-0.9747314453125,11376.144058625,0.3397971800308065,-0.005754579604863676,-0.01427086465829266,-0.02606752887368202,0.02909086272120476,0.1259199380874634,0.02491892129182816,0.01151690166443586,0.001499056816101074,XArbitraryZVertical,-0.00654612076545946,-0.004042246759741387,0.1690976236624052,0.9855693232620385,-0.005753961857408285,0.01427038013935089,-0.9998816251754761,0,0,0,-1,-1,11365.78026116667,unknown,2,2021-03-13 00:53:28.069 -0500,2021-03-13 00:47:42.026 -0500,20,2.267731,0,0,14.11,0,0,2021-03-13 00:50:58.765 -0500,637307618.3664273,0,1.039999,99.51492,1,0.92
2021-03-13 00:53:38.480 -0500,0,0,0,0,0,0,0,0,0,11376.189285625,0.0114898681640625,0.0319976806640625,-0.9629669189453125,11376.174209625,0.3436678754447741,-0.004324402963786021,-0.01175971210648071,0.1390162855386734,0.08501113951206207,0.1232222244143486,0.01212125271558762,0.03810621052980423,0.04044884443283081,XArbitraryZVertical,-0.005423508509573086,-0.003135705988107676,0.1709987416557216,0.9852512898029581,-0.004324090667068958,0.0117594413459301,-0.9999215006828308,0,0,0,-1,-1,11365.78026116667,unknown,2,2021-03-13 00:53:28.069 -0500,2021-03-13 00:47:42.026 -0500,20,2.267731,0,0,14.11,0,0,2021-03-13 00:50:58.765 -0500,637307618.3664273,0,1.039999,99.51492,1,0.92
2021-03-13 00:53:38.515 -0500,0,0,0,0,0,0,0,0,0,11376.224502625,-0.0188446044921875,0.0085906982421875,-1.001449584960938,11376.204391625,0.3470975029725811,-0.0007155662685114606,-0.007148098179978433,0.0901862159371376,0.08687146008014679,0.1013988479971886,0.0185835100710392,0.02173677831888199,0.02612775564193726,XArbitraryZVertical,-0.003458571416199439,-0.0009695677145790963,0.1726790160955999,0.9849716096448982,-0.0007155479397624731,0.007148037198930979,-0.9999741911888123,0,0,0,-1,-1,11365.78026116667,unknown,2,2021-03-13 00:53:28.069 -0500,2021-03-13 00:47:42.026 -0500,20,2.267731,0,0,14.11,0,0,2021-03-13 00:50:58.765 -0500,637307618.3664273,0,1.039999,99.51492,1,0.92
2021-03-13 00:53:38.551 -0500,0,0,0,0,0,0,0,0,0,11376.259689625,-0.017425537109375,0.0121307373046875,-1.027587890625,11376.234542625,0.3501435913811505,0.001775031956590605,-0.007220872520153006,-0.04067935794591904,0.07609905302524567,0.1127466782927513,-0.02585343271493912,0.002010686788707972,-0.003552436828613281,XArbitraryZVertical,-0.003709823510719606,0.000245083684996479,0.1741744728136505,0.9847078158676007,0.001774984761141241,0.007220809813588858,-0.9999723434448242,0,0,0,-1,-1,11365.78026116667,unknown,2,2021-03-13 00:53:28.069 -0500,2021-03-13 00:47:42.026 -0500,20,2.267731,0,0,14.11,0,0,2021-03-13 00:50:58.765 -0500,637307618.3664273,0,1.039999,99.51492,1,0.92
2021-03-13 00:53:38.586 -0500,0,0,0,0,0,0,0,0,0,11376.294906625,-0.021759033203125,-0.003753662109375,-0.9768524169921875,11376.294906625,0.3568396800954053,0.005239645259648185,-0.01185225900351161,0.01127948705106974,0.03925051540136337,0.1032461822032928,-0.0263269804418087,-0.01581933721899986,0.02745819091796875,XArbitraryZVertical,-0.006296944356312767,0.001526457198958691,0.1774557301980133,0.9841073673832798,0.005239253398030996,0.01185198128223419,-0.9999160170555115,0,0,0,-1,-1,11365.78026116667,unknown,2,2021-03-13 00:53:28.069 -0500,2021-03-13 00:47:42.026 -0500,20,2.267731,0,0,14.11,0,0,2021-03-13 00:50:58.765 -0500,637307618.3664273,0,1.039999,99.51492,1,0.92
2021-03-13 00:53:38.620 -0500,0,0,0,0,0,0,0,0,0,11376.330093625,-0.0001373291015625,0.020965576171875,-1.003585815429688,11376.325057625,0.3596928069943052,0.00531643360020038,-0.01166690593477942,0.0007045967504382133,-0.01795502379536629,0.09279029816389084,0.001260410994291306,0.02754837647080421,0.007577717304229736,XArbitraryZVertical,-0.006214802579617845,0.001571825854227967,0.1788595266741808,0.9838537234080537,0.00531604653224349,0.01166664157062769,-0.9999178051948547,0,0,0,-1,-1,11365.78026116667,unknown,2,2021-03-13 00:53:28.069 -0500,2021-03-13 00:47:42.026 -0500,20,2.267731,0,0,14.11,0,0,2021-03-13 00:50:58.765 -0500,637307618.3664273,0,1.039999,99.51492,1,0.92
2021-03-13 00:53:38.655 -0500,0,0,0,0,0,0,0,0,0,11376.365280625,0.0042877197265625,0.0092926025390625,-0.9951171875,11376.355239625,0.3624903523841485,0.004286601152253063,-0.01272911882554596,-0.02026570960879326,-0.00448557548224926,0.1014862507581711,-0.01479962654411793,-0.006594812497496605,-0.002028048038482666,XArbitraryZVertical,-0.006646583251402845,0.000960918867424915,0.180237022283205,0.9836002118358583,0.004286240786314011,0.01272877492010593,-0.9999098181724548,0,0,0,-1,-1,11365.78026116667,unknown,2,2021-03-13 00:53:28.069 -0500,2021-03-13 00:47:42.026 -0500,20,2.267731,0,0,14.11,0,0,2021-03-13 00:50:58.765 -0500,637307618.3664273,0,1.039999,99.51492,1,0.92
2021-03-13 00:53:38.691 -0500,0,0,0,0,0,0,0,0,0,11376.400497625,0.020050048828125,-0.0022125244140625,-0.9896697998046875,11376.385391625,0.3651747233532273,0.003640953044054203,-0.01249484474027642,0.005127795971930027,0.0007978696376085281,0.08191069215536118,0.01051941514015198,-0.01653816923499107,0.00640028715133667,XArbitraryZVertical,-0.006474067806699389,0.0006558156806998213,0.1815594968884534,0.9833584644782828,0.003640660783275962,0.0124945193529129,-0.9999153017997742,0,0,0,-1,-1,11365.78026116667,unknown,2,2021-03-13 00:53:28.069 -0500,2021-03-13 00:47:42.026 -0500,20,2.267731,0,0,14.11,0,0,2021-03-13 00:50:58.765 -0500,637307618.3664273,0,1.039999,99.51492,1,0.92
2021-03-13 00:53:38.726 -0500,0,0,0,0,0,0,0,0,0,11376.435684625,0.0107269287109375,0.028564453125,-0.98443603515625,11376.415573625,0.3670755204655721,0.00391840034780515,-0.0133241131895297,-0.006313986144959927,0.02246452867984772,0.0435272753238678,0.0166812427341938,-0.0003690766170620918,0.01522338390350342,XArbitraryZVertical,-0.006907664453704075,0.0007103755153421484,0.1824918162914192,0.983182845477278,0.003918042406439781,0.0133237186819315,-0.9999035596847534,0,0,0,-1,-1,11365.78026116667,unknown,2,2021-03-13 00:53:28.069 -0500,2021-03-13 00:47:42.026 -0500,20,2.267731,0,0,14.11,0,0,2021-03-13 00:50:58.765 -0500,637307618.3664273,0,1.039999,99.51492,1,0.92
2021-03-13 00:53:38.761 -0500,0,0,0,0,0,0,0,0,0,11376.470870625,0.0113372802734375,0.0140228271484375,-0.9908599853515625,11376.445754625,0.3681700325261643,0.00504749299809525,-0.01242324940027579,0.05530660226941109,0.07694809138774872,0.02774317190051079,0.005923906341195107,0.01635507680475712,0.01432967185974121,XArbitraryZVertical,-0.006568570013326436,0.001344046327865597,0.1830275525344604,0.9830849663526553,0.005047081969678402,0.01242292951792479,-0.9999101161956787,0,0,0,-1,-1,11365.78026116667,unknown,2,2021-03-13 00:53:28.069 -0500,2021-03-13 00:47:42.026 -0500,20,2.267731,0,0,14.11,0,0,2021-03-13 00:50:58.765 -0500,637307618.3664273,0,1.039999,99.51492,1,0.92
2021-03-13 00:53:38.874 -0500,0,0,0,0,0,0,0,0,0,11376.50610941667,0.0178985595703125,0.0211334228515625,-1.00836181640625,11376.50610941667,0.3682950087431171,0.01200220397997904,-0.009159206458127341,0.01534401532262564,0.1083738207817078,-0.01185944862663746,0.004691621288657188,0.008907257579267025,-0.002143383026123047,XArbitraryZVertical,-0.005600912884556622,0.005060996151707514,0.1830762916922486,0.9830696743990427,0.01200141198933125,0.009159078821539879,-0.9998860359191895,0,0,0,-1,-1,11365.78026116667,unknown,2,2021-03-13 00:53:28.069 -0500,2021-03-13 00:47:42.026 -0500,20,2.267731,0,0,14.11,0,0,2021-03-13 00:50:58.765 -0500,637307618.3664273,0,1.039999,99.51492,1,0.92
2021-03-13 00:53:38.879 -0500,0,0,0,0,0,0,0,0,0,11376.54129641667,-0.0001373291015625,0.0226287841796875,-1.007705688476562,11376.53626041667,0.367779577501598,0.01475385746717002,-0.009851710973129219,-0.008199493400752544,0.08603434264659882,-0.01270864717662334,-0.01025134418159723,0.01459295954555273,-0.01172351837158203,XArbitraryZVertical,-0.006191534367342525,0.006351709031914361,0.1828122350154059,0.9831078322909573,0.01475260592997074,0.009851551614701748,-0.999842643737793,0,0,0,-1,-1,11365.78026116667,unknown,2,2021-03-13 00:53:28.069 -0500,2021-03-13 00:47:42.026 -0500,20,2.267731,0,0,14.11,0,0,2021-03-13 00:50:58.765 -0500,637307618.3664273,0,1.039999,99.51492,1,0.92
2021-03-13 00:53:38.884 -0500,0,0,0,0,0,0,0,0,0,11376.57648241667,0.0006256103515625,0.0039215087890625,-0.9988250732421875,11376.56644241667,0.3676933498324918,0.01686656611311135,-0.009934663187641695,0.0003350838087499142,0.06154359132051468,0.003272599773481488,-0.01736855506896973,-0.0003367913886904716,-0.0001915693283081055,XArbitraryZVertical,-0.006425101410853142,0.007382906942695026,0.1827628218332712,0.9831083411651101,0.01686493493616581,0.009934499859809875,-0.9998084306716919,0,0,0,-1,-1,11365.78026116667,unknown,2,2021-03-13 00:53:28.069 -0500,2021-03-13 00:47:42.026 -0500,20,2.267731,0,0,14.11,0,0,2021-03-13 00:50:58.765 -0500,637307618.3664273,0,1.039999,99.51492,1,0.92
2021-03-13 00:53:38.904 -0500,0,0,0,0,0,0,0,0,0,11376.61170041667,0.0201263427734375,0.01287841796875,-1.017105102539062,11376.59662441667,0.3682066719160476,0.01833941782573434,-0.01057965969902237,-0.02927651628851891,0.03593588247895241,0.02566871792078018,-0.01174564845860004,-0.007207339629530907,-0.005396842956542969,XArbitraryZVertical,-0.006878800192841743,0.008046157970431891,0.1830071621293158,0.9830545321324156,0.01833736337721348,0.01057946216315031,-0.9997758865356445,0,0,0,-1,-1,11365.78026116667,unknown,2,2021-03-13 00:53:28.069 -0500,2021-03-13 00:47:42.026 -0500,20,2.267731,0,0,14.11,0,0,2021-03-13 00:50:58.765 -0500,637307618.3664273,0,1.039999,99.51492,1,0.92
2021-03-13 00:53:38.937 -0500,0,0,0,0,0,0,0,0,0,11376.64688641667,0.01885986328125,4.57763671875e-05,-1.001358032226562,11376.62677541667,0.3693539966757273,0.01854342185101324,-0.01159056408166352,-0.006596591789275408,0.009215404279530048,0.0431947186589241,0.00254645012319088,0.0002962229773402214,-0.01510113477706909,XArbitraryZVertical,-0.007398962276727039,0.008049637129114858,0.183565237793384,0.9829467384683578,0.01854111440479755,0.01159030478447676,-0.9997609257698059,0,0,0,-1,-1,11365.78026116667,unknown,2,2021-03-13 00:53:28.069 -0500,2021-03-13 00:47:42.026 -0500,20,2.267731,0,0,14.11,0,0,2021-03-13 00:50:58.765 -0500,637307618.3664273,0,1.039999,99.51492,1,0.92
2021-03-13 00:53:38.973 -0500,0,0,0,0,0,0,0,0,0,11376.68210441667,0.0079803466796875,0.0162506103515625,-0.985198974609375,11376.65695741667,0.3706222624122472,0.01811591599854777,-0.01172976174609719,-0.01171706337481737,0.0005999146960675716,0.03646525740623474,-0.0006119292229413986,-0.01032575406134129,-0.0008737444877624512,XArbitraryZVertical,-0.007433097483894886,0.007822034264283457,0.1841894133643903,0.9828314916348843,0.01811367832124233,0.01172949280589819,-0.9997671246528625,0,0,0,-1,-1,11365.78026116667,unknown,2,2021-03-13 00:53:28.069 -0500,2021-03-13 00:47:42.026 -0500,20,2.267731,0,0,14.11,0,0,2021-03-13 00:50:58.765 -0500,637307618.3664273,0,1.039999,99.51492,1,0.92
2021-03-13 00:53:39.008 -0500,0,0,0,0,0,0,0,0,0,11376.71729041667,0.0261993408203125,-0.006988525390625,-0.994659423828125,11376.71729041667,0.3720799125882013,0.01886258570930025,-0.01134338944384126,-0.005583537276834249,0.02267672121524811,0.01817706413567066,0.004714494571089745,-0.01663801446557045,0.006929397583007812,XArbitraryZVertical,-0.007317988459126947,0.008219230754793982,0.1849048817218112,0.9826947694146947,0.01886025443673134,0.01134314574301243,-0.9997577667236328,0,0,0,-1,-1,11365.78026116667,unknown,2,2021-03-13 00:53:28.069 -0500,2021-03-13 00:47:42.026 -0500,20,2.267731,0,0,14.11,0,0,2021-03-13 00:50:58.765 -0500,637307618.3664273,0,1.039999,99.51492,1,0.92
2021-03-13 00:53:39.043 -0500,0,0,0,0,0,0,0,0,0,11376.75247741667,0.0235137939453125,0.0137481689453125,-1.000762939453125,11376.74747241667,0.3723574553833471,0.01946179681921566,-0.01136370206746999,0.006972557865083218,0.02411273866891861,0.002227791585028172,0.003383014351129532,-0.003917237743735313,-0.005411386489868164,XArbitraryZVertical,-0.007384547916966864,0.00851074739470516,0.1850389378436039,0.9826665745633627,0.0194593109190464,0.01136345788836479,-0.9997460842132568,0,0,0,-1,-1,11365.78026116667,unknown,2,2021-03-13 00:53:28.069 -0500,2021-03-13 00:47:42.026 -0500,20,2.267731,0,0,14.11,0,0,2021-03-13 00:50:58.765 -0500,637307618.3664273,0,1.039999,99.51492,1,0.92
2021-03-13 00:53:39.078 -0500,0,0,0,0,0,0,0,0,0,11376.78769441667,0.0345306396484375,-0.01568603515625,-1.005447387695312,11376.77762441667,0.3726269156589961,0.02026165212017679,-0.01044167339444363,0.03801329433917999,0.04306379333138466,0.02262227982282639,0.006153721362352371,-0.01181484386324883,0.004256844520568848,XArbitraryZVertical,-0.007006747293818089,0.008988153429605239,0.18517340869239,0.9826398109415403,0.02025916054844856,0.0104414839297533,-0.9997402429580688,0,0,0,-1,-1,11365.78026116667,unknown,2,2021-03-13 00:53:28.069 -0500,2021-03-13 00:47:42.026 -0500,20,2.267731,0,0,14.11,0,0,2021-03-13 00:50:58.765 -0500,637307618.3664273,0,1.039999,99.51492,1,0.92
2021-03-13 00:53:39.114 -0500,0,0,0,0,0,0,0,0,0,11376.82288141667,0.031463623046875,0.0056610107421875,-1.001678466796875,11376.80780641667,0.3734534737920937,0.02113682966727649,-0.009582577330724306,-0.001194592099636793,0.01151852682232857,0.02609382569789886,0.02014065533876419,-0.01210020016878843,-0.01081305742263794,XArbitraryZVertical,-0.006669620166787707,0.009494974463650023,0.1855812750376875,0.9825604220217187,0.02113428525626659,0.009582431055605412,-0.9997307062149048,0,0,0,-1,-1,11365.78026116667,unknown,2,2021-03-13 00:53:28.069 -0500,2021-03-13 00:47:42.026 -0500,20,2.267731,0,0,14.11,0,0,2021-03-13 00:50:58.765 -0500,637307618.3664273,0,1.039999,99.51492,1,0.92
2021-03-13 00:53:39.148 -0500,0,0,0,0,0,0,0,0,0,11376.85806841667,0.020751953125,0.014892578125,-0.9899444580078125,11376.83795741667,0.3742593491531974,0.02143016265290283,-0.009214570352676201,0.0211193785071373,0.01609168574213982,0.02239108458161354,0.001414712518453598,0.002443205565214157,0.0009181499481201172,XArbitraryZVertical,-0.006519944898549649,0.009670622486350392,0.1859782869175741,0.9824846498340802,0.02142761275172234,0.009214440360665321,-0.9997279644012451,0,0,0,-1,-1,11365.78026116667,unknown,2,2021-03-13 00:53:28.069 -0500,2021-03-13 00:47:42.026 -0500,20,2.267731,0,0,14.11,0,0,2021-03-13 00:50:58.765 -0500,637307618.3664273,0,1.039999,99.51492,1,0.92
2021-03-13 00:53:39.184 -0500,0,0,0,0,0,0,0,0,0,11376.89328541667,0.0239105224609375,0.0018157958984375,-0.9931182861328125,11376.86813941667,0.3751910699747497,0.02240749340576369,-0.007908931937830819,0.03230465576052666,0.03303391858935356,0.0372784212231636,-0.001973481848835945,0.002528093755245209,0.00811004638671875,XArbitraryZVertical,-0.005974240035313406,0.01026941803416491,0.1864404723742586,0.9823943895038654,0.02240491844713688,0.00790884904563427,-0.9997177124023438,0,0,0,-1,-1,11365.78026116667,unknown,2,2021-03-13 00:53:28.069 -0500,2021-03-13 00:47:42.026 -0500,20,2.267731,0,0,14.11,0,0,2021-03-13 00:50:58.765 -0500,637307618.3664273,0,1.039999,99.51492,1,0.92
2021-03-13 00:53:39.219 -0500,0,0,0,0,0,0,0,0,0,11376.92847241667,0.0205078125,0.0078125,-0.9886474609375,11376.89832141667,0.3766508057033735,0.02385651839732798,-0.00721257380598823,-0.01074571907520294,0.02569811791181564,0.05386701598763466,5.68050891160965e-05,-0.005396783817559481,0.006571173667907715,XArbitraryZVertical,-0.005775336812818675,0.01104190476192864,0.1871573832529795,0.9822508748951565,0.02385363541543484,0.007212511263787746,-0.9996894598007202,0,0,0,-1,-1,11365.78026116667,unknown,2,2021-03-13 00:53:28.069 -0500,2021-03-13 00:47:42.026 -0500,20,2.267731,0,0,14.11,0,0,2021-03-13 00:50:58.765 -0500,637307618.3664273,0,1.039999,99.51492,1,0.92
2021-03-13 00:53:39.254 -0500,0,0,0,0,0,0,0,0,0,11376.96368941667,0.0312652587890625,-0.011474609375,-1.001129150390625,11376.95865441667,0.3812179510239438,0.02482098107716652,-0.009258920540328799,-0.07829361408948898,-0.01228579040616751,0.1014842912554741,0.00638677179813385,-0.01342450734227896,-0.003967165946960449,XArbitraryZVertical,-0.006896417901907106,0.01130826940092051,0.1893838552189136,0.9818137294360899,0.02481736801564693,0.009258788079023361,-0.9996491074562073,0,0,0,-1,-1,11365.78026116667,unknown,2,2021-03-13 00:53:28.069 -0500,2021-03-13 00:47:42.026 -0500,20,2.267731,0,0,14.11,0,0,2021-03-13 00:50:58.765 -0500,637307618.3664273,0,1.039999,99.51492,1,0.92
2021-03-13 00:53:39.329 -0500,0,0,0,0,0,0,0,0,0,11376.99887641667,0.0257720947265625,-0.0364990234375,-0.9992828369140625,11376.98880541667,0.3849464137081916,0.02402837632726405,-0.0124962756560207,-0.1808053106069565,-0.03128789365291595,0.1519422233104706,0.005226826295256615,-0.03582670912146568,-0.004517078399658203,XArbitraryZVertical,-0.008430335991358208,0.01059672834623924,0.191195795483639,0.9814585241284566,0.02402418851852417,0.01249595079571009,-0.999633252620697,0,0,0,-1,-1,11365.78026116667,unknown,2,2021-03-13 00:53:28.069 -0500,2021-03-13 00:47:42.026 -0500,20,2.267731,0,0,14.11,0,0,2021-03-13 00:50:58.765 -0500,637307618.3664273,0,1.039999,99.51492,1,0.92
2021-03-13 00:53:39.368 -0500,0,0,0,0,0,0,0,0,0,11377.03406341667,0.029632568359375,-0.0305328369140625,-1.018051147460938,11377.01898741667,0.3907976026345413,0.02285912472222767,-0.0203467702499611,-0.3772591054439545,-0.05025206133723259,0.2299028784036636,0.002568656578660011,-0.05309079587459564,0.002186834812164307,XArbitraryZVertical,-0.01219794062855631,0.009236158695941922,0.1940209816895418,0.9808780131551557,0.02285240218043327,0.02034536562860012,-0.9995318055152893,0,0,0,-1,-1,11365.78026116667,unknown,2,2021-03-13 00:53:28.069 -0500,2021-03-13 00:47:42.026 -0500,20,2.267731,0,0,14.11,0,0,2021-03-13 00:50:58.765 -0500,637307618.3664273,0,1.039999,99.51492,1,0.92
2021-03-13 00:53:39.375 -0500,0,0,0,0,0,0,0,0,0,11377.06928041667,0.027374267578125,0.0364837646484375,-1.008392333984375,11377.04916941667,0.3997227421645305,0.02136687922873617,-0.0320992491754524,-0.4122177958488464,-0.06849260628223419,0.3290692269802094,0.007118567824363708,-0.05176238343119621,-0.01635301113128662,XArbitraryZVertical,-0.01784927728228832,0.007283159613331888,0.1983285322264219,0.97994594715684,0.02135424688458443,0.03209373727440834,-0.9992567300796509,0,0,0,-1,-1,11365.78026116667,unknown,2,2021-03-13 00:53:28.069 -0500,2021-03-13 00:47:42.026 -0500,20,2.267731,0,0,14.11,0,0,2021-03-13 00:50:58.765 -0500,637307618.3664273,0,1.039999,99.51492,1,0.92
2021-03-13 00:53:39.395 -0500,0,0,0,0,0,0,0,0,0,11377.10446741667,0.027496337890625,0.033660888671875,-0.980926513671875,11377.07932041667,0.4105552046325404,0.02013169601046538,-0.03980375833341772,-0.2440821379423141,-0.04610642045736313,0.3666670322418213,0.00616115890443325,0.0009323917329311371,-0.004122614860534668,XArbitraryZVertical,-0.0215331277883132,0.005796086988348115,0.2035921596456465,0.9788017066773665,0.02011439204216003,0.03979324921965599,-0.9990054368972778,0,0,0,-1,-1,11365.78026116667,unknown,2,2021-03-13 00:53:28.069 -0500,2021-03-13 00:47:42.026 -0500,20,2.267731,0,0,14.11,0,0,2021-03-13 00:50:58.765 -0500,637307618.3664273,0,1.039999,99.51492,1,0.92
2021-03-13 00:53:39.431 -0500,0,0,0,0,0,0,0,0,0,11377.13965441667,0.0447845458984375,-0.01763916015625,-0.960723876953125,11377.13965441667,0.4361262919457967,0.02208034424557198,-0.0563595269739731,-0.6718798279762268,0.07795903086662292,0.4869219958782196,0.02048266306519508,-0.07329753786325455,0.03779596090316772,XArbitraryZVertical,-0.02989452618904224,0.004679018603395696,0.2159362872746848,0.9759384453069339,0.0220434945076704,0.05632969364523888,-0.9981688261032104,0,0,0,-1,-1,11365.78026116667,unknown,2,2021-03-13 00:53:28.069 -0500,2021-03-13 00:47:42.026 -0500,20,2.267731,0,0,14.11,0,0,2021-03-13 00:50:58.765 -0500,637307618.3664273,0,1.039999,99.51492,1,0.92
2021-03-13 00:53:39.465 -0500,0,0,0,0,0,0,0,0,0,11377.17487141667,0.080230712890625,0.0412750244140625,-0.9922332763671875,11377.16983641667,0.4530006308934003,0.02635707168364899,-0.08101325720311439,-1.036373972892761,0.1221594735980034,0.5612671971321106,0.04775271564722061,-0.06664250791072845,0.03413951396942139,XArbitraryZVertical,-0.04241477300550849,0.00373778741944496,0.2238448937979226,0.9736942188360014,0.02626758441329002,0.08092466741800308,-0.9963740110397339,0,0,0,-1,-1,11365.78026116667,unknown,2,2021-03-13 00:53:28.069 -0500,2021-03-13 00:47:42.026 -0500,20,2.267731,0,0,14.11,0,0,2021-03-13 00:50:58.765 -0500,637307618.3664273,0,1.039999,99.51492,1,0.92
2021-03-13 00:53:39.500 -0500,0,0,0,0,0,0,0,0,0,11377.21005841667,0.0778350830078125,0.115020751953125,-1.022064208984375,11377.20001741667,0.472259826881809,0.03162068968878416,-0.1127146263947589,-1.127699494361877,0.1070959568023682,0.6394639611244202,0.05047902837395668,0.002208873629570007,-0.001059174537658691,XArbitraryZVertical,-0.05845026294273315,0.002170872338557221,0.2326752829272553,0.9707940003248464,0.03141480311751366,0.112476110458374,-0.993157684803009,0,0,0,-1,-1,11365.78026116667,unknown,2,2021-03-13 00:53:28.069 -0500,2021-03-13 00:47:42.026 -0500,20,2.267731,0,0,14.11,0,0,2021-03-13 00:50:58.765 -0500,637307618.3664273,0,1.039999,99.51492,1,0.92
2021-03-13 00:53:39.536 -0500,0,0,0,0,0,0,0,0,0,11377.24524441667,0.064849853515625,0.1168975830078125,-1.0279541015625,11377.23016941667,0.4943014059435022,0.03627961272379572,-0.1414290435703001,-0.7787883877754211,0.01744274795055389,0.7376566529273987,0.04467207193374634,-0.001187577843666077,-0.01411491632461548,XArbitraryZVertical,-0.07292377877279413,0.0002611778391299077,0.2427480144360423,0.9673445113387198,0.035909503698349,0.1409580260515213,-0.9893640875816345,0,0,0,-1,-1,11365.78026116667,unknown,2,2021-03-13 00:53:28.069 -0500,2021-03-13 00:47:42.026 -0500,20,2.267731,0,0,14.11,0,0,2021-03-13 00:50:58.765 -0500,637307618.3664273,0,1.039999,99.51492,1,0.92
2021-03-13 00:53:39.571 -0500,0,0,0,0,0,0,0,0,0,11377.28046241667,0.054473876953125,0.2023773193359375,-1.0491943359375,11377.26035141667,0.5177077848813725,0.04084431195880435,-0.1568065726237985,-0.6112514138221741,0.0275953933596611,0.7100306153297424,0.01890255138278008,-0.01859158277511597,-0.0494697093963623,XArbitraryZVertical,-0.08090888595032991,-0.0003646172965772461,0.2535871246800234,0.9639227795716889,0.04033197835087776,0.1561647653579712,-0.9869072437286377,0,0,0,-1,-1,11365.78026116667,unknown,2,2021-03-13 00:53:28.069 -0500,2021-03-13 00:47:42.026 -0500,20,2.267731,0,0,14.11,0,0,2021-03-13 00:50:58.765 -0500,637307618.3664273,0,1.039999,99.51492,1,0.92
2021-03-13 00:53:39.606 -0500,0,0,0,0,0,0,0,0,0,11377.31564941667,0.05078125,0.2677764892578125,-1.016616821289062,11377.29050241667,0.5401422236208022,0.04612782316283645,-0.1798161800420982,-1.017192721366882,-0.02501512691378593,0.6996190547943115,0.01217281073331833,0.03289742767810822,-0.06862258911132812,XArbitraryZVertical,-0.09263744455356927,-0.001812653106445656,0.2636560940709013,0.9601564846555976,0.04536799341440201,0.1788487136363983,-0.9828300476074219,0,0,0,-1,-1,11365.78026116667,unknown,2,2021-03-13 00:53:28.069 -0500,2021-03-13 00:47:42.026 -0500,20,2.267731,0,0,14.11,0,0,2021-03-13 00:50:58.765 -0500,637307618.3664273,0,1.039999,99.51492,1,0.92
2021-03-13 00:53:39.642 -0500,0,0,0,0,0,0,0,0,0,11377.35086641667,0.0194854736328125,0.2372589111328125,-1.03326416015625,11377.35086641667,0.5905239084575826,0.04227121989417974,-0.2342640123407949,-0.9543952345848083,-0.4172663390636444,0.7978402376174927,-0.02326692640781403,-0.01589491963386536,-0.0616765022277832,XArbitraryZVertical,-0.1178898452988753,-0.01391788085669165,0.2865690889684588,0.9506768565064283,0.04110435768961906,0.2321271598339081,-0.9718165397644043,0,0,0,-1,-1,11365.78026116667,unknown,2,2021-03-13 00:53:28.069 -0500,2021-03-13 00:47:42.026 -0500,20,2.267731,0,0,14.11,0,0,2021-03-13 00:50:58.765 -0500,637307618.3664273,0,1.039999,99.51492,1,0.92
2021-03-13 00:53:39.677 -0500,0,0,0,0,0,0,0,0,0,11377.38605341667,0.0091705322265625,0.39453125,-0.978790283203125,11377.38101741667,0.6114712027935878,0.0347076469578885,-0.2621210204776586,-0.9512891173362732,-0.4377463161945343,0.4803206622600555,-0.01125291734933853,0.09725451469421387,-0.05594885349273682,XArbitraryZVertical,-0.1297847775091708,-0.02292346245467113,0.2962058240841132,0.9459875940726868,0.03351539000868797,0.2591297030448914,-0.9652608633041382,0,0,0,-1,-1,11365.78026116667,unknown,2,2021-03-13 00:53:28.069 -0500,2021-03-13 00:47:42.026 -0500,20,2.267731,0,0,14.11,0,0,2021-03-13 00:50:58.765 -0500,637307618.3664273,0,1.039999,99.51492,1,0.92
2021-03-13 00:53:39.712 -0500,0,0,0,0,0,0,0,0,0,11377.42123941667,-0.0416412353515625,0.3785400390625,-0.8972625732421875,11377.41119941667,0.6238850951097641,0.02354328617877207,-0.2966292697191432,-1.392054319381714,-0.545526385307312,0.303531289100647,-0.06299466639757156,0.1212147772312164,0.03247815370559692,XArbitraryZVertical,-0.1442032344685781,-0.03426883317752665,0.3018620865029585,0.9417591440835418,0.02251300401985645,0.2922983467578888,-0.9560621380805969,0,0,0,-1,-1,11365.78026116667,unknown,2,2021-03-13 00:53:28.069 -0500,2021-03-13 00:47:42.026 -0500,20,2.267731,0,0,14.11,0,0,2021-03-13 00:50:58.765 -0500,637307618.3664273,0,1.039999,99.51492,1,0.92
2021-03-13 00:53:39.747 -0500,0,0,0,0,0,0,0,0,0,11377.45645741667,-0.086029052734375,0.487884521484375,-0.8817596435546875,11377.44135041667,0.6282446278396305,0.009749664470135134,-0.3473357433476786,-2.093696594238281,-0.4006410241127014,-0.09936844557523727,-0.0840422734618187,0.07897862792015076,0.06986165046691895,XArbitraryZVertical,-0.1658225565311408,-0.04882373056598174,0.3035292955991876,0.9370106360515171,0.00916729774326086,0.3403938710689545,-0.9402382373809814,0,0,0,-1,-1,11365.78026116667,unknown,2,2021-03-13 00:53:28.069 -0500,2021-03-13 00:47:42.026 -0500,20,2.267731,0,0,14.11,0,0,2021-03-13 00:50:58.765 -0500,637307618.3664273,0,1.039999,99.51492,1,0.92
2021-03-13 00:53:39.782 -0500,0,0,0,0,0,0,0,0,0,11377.491634875,-0.151824951171875,0.618988037109375,-0.769134521484375,11377.47153241667,0.6200802126826993,-0.002760301611559156,-0.4209590449905831,-2.610664129257202,-0.2187725305557251,-0.4312641620635986,-0.07394257187843323,0.1086216866970062,0.03963184356689453,XArbitraryZVertical,-0.1985554415897966,-0.06502881747981955,0.2986379264158052,0.9312155169290948,-0.002519316971302032,0.4086359441280365,-0.912693977355957,0,0,0,-1,-1,11365.78026116667,unknown,2,2021-03-13 00:53:28.069 -0500,2021-03-13 00:47:42.026 -0500,20,2.267731,0,0,14.11,0,0,2021-03-13 00:50:58.765 -0500,637307618.3664273,0,1.039999,99.51492,1,0.92
2021-03-13 00:53:39.866 -0500,0,0,0,0,0,0,0,0,0,11377.526821875,-0.15692138671875,0.5652008056640625,-0.7094268798828125,11377.501705875,0.6005761773991728,-0.01304184066198377,-0.4961760460537736,-2.392964601516724,0.1290133148431778,-0.6454111337661743,-0.149328425526619,0.162285178899765,0.1327678561210632,XArbitraryZVertical,-0.2326881033307273,-0.07866966306744108,0.2882627007464055,0.9255117494322896,-0.01146879233419895,0.4760662019252777,-0.8793346881866455,0,0,0,-1,-1,11365.78026116667,unknown,2,2021-03-13 00:53:28.069 -0500,2021-03-13 00:47:42.026 -0500,20,2.267731,0,0,14.11,0,0,2021-03-13 00:50:58.765 -0500,637307618.3664273,0,1.039999,99.51492,1,0.92
2021-03-13 00:53:39.872 -0500,0,0,0,0,0,0,0,0,0,11377.562038875,-0.191619873046875,0.555694580078125,-0.6839599609375,11377.531857875,0.5763016998321722,-0.01749047477036868,-0.5629574899004033,-1.967146635055542,0.330874890089035,-0.6504327058792114,-0.1421308815479279,0.03151112794876099,0.1361241936683655,XArbitraryZVertical,-0.263926475787415,-0.08699004528922,0.2753146979479073,0.9203137769566422,-0.01479059830307961,0.5336896181106567,-0.845551073551178,0,0,0,-1,-1,11365.78026116667,unknown,2,2021-03-13 00:53:28.069 -0500,2021-03-13 00:47:42.026 -0500,20,2.267731,0,0,14.11,0,0,2021-03-13 00:50:58.765 -0500,637307618.3664273,0,1.039999,99.51492,1,0.92
2021-03-13 00:53:39.888 -0500,0,0,0,0,0,0,0,0,0,11377.597225875,-0.1273040771484375,0.4422607421875,-0.829010009765625,11377.592190875,0.5268212473518998,-0.01643531815253587,-0.6353908443880619,-0.6096636652946472,0.5800602436065674,-0.5159661173820496,-0.1379111856222153,-0.1333176493644714,0.02447283267974854,XArbitraryZVertical,-0.2995606996416249,-0.08886981259631689,0.2498154129474493,0.9164920992438731,-0.0132272019982338,0.5934921503067017,-0.8047310709953308,0,0,0,-1,-1,11365.78026116667,unknown,2,2021-03-13 00:53:28.069 -0500,2021-03-13 00:47:42.026 -0500,20,2.267731,0,0,14.11,0,0,2021-03-13 00:50:58.765 -0500,637307618.3664273,0,1.039999,99.51492,1,0.92
2021-03-13 00:53:39.923 -0500,0,0,0,0,0,0,0,0,0,11377.632443875,-0.045684814453125,0.50970458984375,-0.8568267822265625,11377.622372875,0.5088329572084513,-0.01058309702295848,-0.6509855186821736,-0.4594528079032898,0.5296019315719604,-0.4568997919559479,-0.06207714974880219,-0.1578658819198608,-0.08515757322311401,XArbitraryZVertical,-0.3082160677145445,-0.08533255935606515,0.2401000874912493,0.9165550021894566,-0.008418558165431023,0.6059706807136536,-0.7954424023628235,0,0,0,-1,-1,11365.78026116667,unknown,2,2021-03-13 00:53:28.069 -0500,2021-03-13 00:47:42.026 -0500,20,2.267731,0,0,14.11,0,0,2021-03-13 00:50:58.765 -0500,637307618.3664273,0,1.039999,99.51492,1,0.92
2021-03-13 00:53:39.958 -0500,0,0,0,0,0,0,0,0,0,11377.667629875,0.0329742431640625,0.57830810546875,-0.898193359375,11377.652554875,0.4938655060441133,-0.005979974988360031,-0.664003979029123,-0.3572908341884613,0.3885357081890106,-0.3310097754001617,0.000757262110710144,-0.0746644139289856,-0.07008808851242065,XArbitraryZVertical,-0.315357278071822,-0.08240952314060283,0.2320269055216809,0.9164725663108348,-0.004709387663751841,0.6162750124931335,-0.7875168919563293,0,0,0,-1,-1,11365.78026116667,unknown,2,2021-03-13 00:53:28.069 -0500,2021-03-13 00:47:42.026 -0500,20,2.267731,0,0,14.11,0,0,2021-03-13 00:50:58.765 -0500,637307618.3664273,0,1.039999,99.51492,1,0.92
2021-03-13 00:53:39.994 -0500,0,0,0,0,0,0,0,0,0,11377.702816875,0.1087188720703125,0.5708770751953125,-0.9361419677734375,11377.682705875,0.4811720473631054,-0.004112266621968909,-0.6712053906162552,-0.1253527849912643,0.2658605873584747,-0.2055636048316956,0.0687718540430069,0.03851574659347534,-0.1264036893844604,XArbitraryZVertical,-0.3193896119465922,-0.08035738253015609,0.2256362917283893,0.9168539636731901,-0.003220194019377232,0.6219303607940674,-0.7830659151077271,0,0,0,-1,-1,11365.78026116667,unknown,2,2021-03-13 00:53:28.069 -0500,2021-03-13 00:47:42.026 -0500,20,2.267731,0,0,14.11,0,0,2021-03-13 00:50:58.765 -0500,637307618.3664273,0,1.039999,99.51492,1,0.92
2021-03-13 00:53:40.029 -0500,0,0,0,0,0,0,0,0,0,11377.738033875,0.1431732177734375,0.6273651123046875,-0.8861083984375,11377.712887875,0.4741673481092558,-0.000974861976995599,-0.6719593110372722,-0.0135318748652935,0.2113155424594879,-0.2430424988269806,0.1178740411996841,-0.03873461484909058,-0.1521961688995361,XArbitraryZVertical,-0.3203635955154584,-0.07788222328465969,0.2218930367493109,0.9176409347186127,-0.0007629301981069148,0.6225205659866333,-0.7826030254364014,0,0,0,-1,-1,11365.78026116667,unknown,2,2021-03-13 00:53:28.069 -0500,2021-03-13 00:47:42.026 -0500,20,2.267731,0,0,14.11,0,0,2021-03-13 00:50:58.765 -0500,637307618.3664273,0,1.039999,99.51492,1,0.92
2021-03-13 00:53:40.064 -0500,0,0,0,0,0,0,0,0,0,11377.773220875,0.0875396728515625,0.5064544677734375,-0.8207855224609375,11377.743038875,0.4660127382451626,-0.001128268339740956,-0.667883558900875,0.180928960442543,0.1119029372930527,-0.1734503507614136,0.1440589725971222,0.008039295673370361,-0.1009747385978699,XArbitraryZVertical,-0.3187890612493861,-0.07620178667240438,0.218327931788332,0.9191841869146193,-0.0008858417859300971,0.6193256974220276,-0.7851336598396301,0,0,0,-1,-1,11365.78026116667,unknown,2,2021-03-13 00:53:28.069 -0500,2021-03-13 00:47:42.026 -0500,20,2.267731,0,0,14.11,0,0,2021-03-13 00:50:58.765 -0500,637307618.3664273,0,1.039999,99.51492,1,0.92
2021-03-13 00:53:40.099 -0500,0,0,0,0,0,0,0,0,0,11377.808407875,0.040313720703125,0.560333251953125,-0.76129150390625,11377.803402875,0.4616911787723388,0.006647323358169426,-0.6641927308554113,-0.2064138650894165,0.1334907710552216,-0.07468453794717789,0.0485224723815918,-0.1074516177177429,0.002240955829620361,XArbitraryZVertical,-0.3180943583081787,-0.07153580533869996,0.2152432831058433,0.9205263463438499,0.005234160926192999,0.6164236664772034,-0.7873972058296204,0,0,0,-1,-1,11365.78026116667,unknown,2,2021-03-13 00:53:28.069 -0500,2021-03-13 00:47:42.026 -0500,20,2.267731,0,0,14.11,0,0,2021-03-13 00:50:58.765 -0500,637307618.3664273,0,1.039999,99.51492,1,0.92
2021-03-13 00:53:40.134 -0500,0,0,0,0,0,0,0,0,0,11377.843624875,0.0257568359375,0.624603271484375,-0.702362060546875,11377.833553875,0.4640756209571463,0.01621271418896977,-0.6655252865288734,0.02963924407958984,0.2113528996706009,0.05314391851425171,0.01634618639945984,0.01828491687774658,0.04944384098052979,XArbitraryZVertical,-0.319652349600997,-0.06765932888057025,0.2147621968205425,0.9203922212479129,0.01275224145501852,0.6174724102020264,-0.7864891886711121,0,0,0,-1,-1,11365.78026116667,unknown,2,2021-03-13 00:53:28.069 -0500,2021-03-13 00:47:42.026 -0500,20,2.267731,0,0,14.11,0,0,2021-03-13 00:50:58.765 -0500,637307618.3664273,0,1.039999,99.51492,1,0.92
2021-03-13 00:53:40.169 -0500,0,0,0,0,0,0,0,0,0,11377.878811875,0.020050048828125,0.695892333984375,-0.6692962646484375,11377.863735875,0.4690212841491173,0.02814388028906788,-0.6589526195638032,0.2089711278676987,0.2250306010246277,0.1139161214232445,-0.001908689737319946,0.0280764102935791,0.1020883321762085,XArbitraryZVertical,-0.3177542108055322,-0.0622242161853514,0.2154185490316521,0.9212790464767768,0.02224856987595558,0.6122890710830688,-0.7903208136558533,0,0,0,-1,-1,11365.78026116667,unknown,2,2021-03-13 00:53:28.069 -0500,2021-03-13 00:47:42.026 -0500,20,2.267731,0,0,14.11,0,0,2021-03-13 00:50:58.765 -0500,637307618.3664273,0,1.039999,99.51492,1,0.92
2021-03-13 00:53:40.204 -0500,0,0,0,0,0,0,0,0,0,11377.913998875,0.0337982177734375,0.678802490234375,-0.7135162353515625,11377.893887875,0.4744216683534254,0.03938956105322274,-0.642443066801448,0.8296992182731628,0.2547470927238464,0.1670927405357361,-0.008808232843875885,0.09127640724182129,0.1107738018035889,XArbitraryZVertical,-0.3112162369221541,-0.05601588555365684,0.2168858478743942,0.9235622324020009,0.03152848035097122,0.5991532206535339,-0.8000133633613586,0,0,0,-1,-1,11365.78026116667,unknown,2,2021-03-13 00:53:28.069 -0500,2021-03-13 00:47:42.026 -0500,20,2.267731,0,0,14.11,0,0,2021-03-13 00:50:58.765 -0500,637307618.3664273,0,1.039999,99.51492,1,0.92
2021-03-13 00:53:40.240 -0500,0,0,0,0,0,0,0,0,0,11377.949215875,0.0538787841796875,0.603118896484375,-0.784423828125,11377.924068875,0.4789124782366039,0.04998644659473391,-0.6123026015352838,1.129247784614563,0.2639770209789276,0.1349461674690247,-0.003366947174072266,0.08337348699569702,0.08906358480453491,XArbitraryZVertical,-0.298351678857899,-0.04831128355495301,0.2187582879292172,0.9277914528862605,0.04088821262121201,0.5747532844543457,-0.8173046112060547,0,0,0,-1,-1,11365.78026116667,unknown,2,2021-03-13 00:53:28.069 -0500,2021-03-13 00:47:42.026 -0500,20,2.267731,0,0,14.11,0,0,2021-03-13 00:50:58.765 -0500,637307618.3664273,0,1.039999,99.51492,1,0.92
2021-03-13 00:53:40.276 -0500,0,0,0,0,0,0,0,0,0,11377.984402875,0.0514984130859375,0.5551605224609375,-0.8499755859375,11377.984402875,0.4806536923012659,0.06519401602293895,-0.5543284619874208,0.7190788984298706,0.1846073865890503,0.042507354170084,0.003704976290464401,0.04674756526947021,0.003568708896636963,XArbitraryZVertical,-0.2730853161342464,-0.03464818067997638,0.2201528947927927,0.9358186182635083,0.05539222061634064,0.5263724327087402,-0.8484477996826172,0,0,0,-1,-1,11365.78026116667,unknown,2,2021-03-13 00:53:28.069 -0500,2021-03-13 00:47:42.026 -0500,20,2.267731,0,0,14.11,0,0,2021-03-13 00:50:58.765 -0500,637307618.3664273,0,1.039999,99.51492,1,0.92
2021-03-13 00:53:40.330 -0500,0,0,0,0,0,0,0,0,0,11378.019619875,0.067108154296875,0.54296875,-0.8359222412109375,11378.014584875,0.4805597014272054,0.06909753856818118,-0.536538592940056,0.6448180675506592,0.08317427337169647,0.05572627112269402,0.008606370538473129,0.03008037805557251,0.02166253328323364,XArbitraryZVertical,-0.2652205800666992,-0.03069105968802069,0.2204326777159991,0.9381500742095646,0.05934092402458191,0.5111640095710754,-0.8574321866035461,0,0,0,-1,-1,11365.78026116667,unknown,2,2021-03-13 00:53:28.069 -0500,2021-03-13 00:47:42.026 -0500,20,2.267731,0,0,14.11,0,0,2021-03-13 00:50:58.765 -0500,637307618.3664273,0,1.039999,99.51492,1,0.92
2021-03-13 00:53:40.345 -0500,0,0,0,0,0,0,0,0,0,11378.054806875,0.08148193359375,0.471710205078125,-0.8640594482421875,11378.044735875,0.4814799569583682,0.07139200295850079,-0.5188525518443242,0.6749459505081177,0.046999741345644,0.08891787379980087,0.01268728449940681,0.008113712072372437,0.01127249002456665,XArbitraryZVertical,-0.2571937681336314,-0.02762288296169703,0.2214053142548178,0.940248923571973,0.06194336339831352,0.4958840310573578,-0.8661766648292542,0,0,0,-1,-1,11365.78026116667,unknown,2,2021-03-13 00:53:28.069 -0500,2021-03-13 00:47:42.026 -0500,20,2.267731,0,0,14.11,0,0,2021-03-13 00:50:58.765 -0500,637307618.3664273,0,1.039999,99.51492,1,0.92
2021-03-13 00:53:40.381 -0500,0,0,0,0,0,0,0,0,0,11378.089993875,0.08953857421875,0.474853515625,-0.871673583984375,11378.074917875,0.4845459405297933,0.07347038391681607,-0.5075110618819342,0.1648536175489426,0.002230916172266006,0.1579786390066147,0.01876397430896759,-0.02871295809745789,0.009462237358093262,XArbitraryZVertical,-0.2520739473994794,-0.02567402086819703,0.2231197002452801,0.94128483959945,0.06415219604969025,0.4860035181045532,-0.8715991377830505,0,0,0,-1,-1,11365.78026116667,unknown,2,2021-03-13 00:53:28.069 -0500,2021-03-13 00:47:42.026 -0500,20,2.267731,0,0,14.11,0,0,2021-03-13 00:50:58.765 -0500,637307618.3664273,0,1.039999,99.51492,1,0.92
2021-03-13 00:53:40.415 -0500,0,0,0,0,0,0,0,0,0,11378.125210875,0.09942626953125,0.5345306396484375,-0.8927764892578125,11378.105099875,0.4901333461673141,0.07531257801713183,-0.5107074226167301,-0.2032694667577744,-0.06654614210128784,0.1525715738534927,0.03515894711017609,0.02057430148124695,-0.01232194900512695,XArbitraryZVertical,-0.2537047767088886,-0.02590136969511275,0.2253622085766094,0.9403057961923191,0.06564052402973175,0.4887945353984833,-0.8699260354042053,0,0,0,-1,-1,11365.78026116667,unknown,2,2021-03-13 00:53:28.069 -0500,2021-03-13 00:47:42.026 -0500,20,2.267731,0,0,14.11,0,0,2021-03-13 00:50:58.765 -0500,637307618.3664273,0,1.039999,99.51492,1,0.92
2021-03-13 00:53:40.452 -0500,0,0,0,0,0,0,0,0,0,11378.160397875,0.1002960205078125,0.54559326171875,-0.8672637939453125,11378.135250875,0.4970840767892919,0.07640152701773494,-0.5191166514456179,-0.3520043790340424,-0.1004226580262184,0.1890419274568558,0.03114032000303268,0.03628098964691162,-0.02578514814376831,XArbitraryZVertical,-0.2576658528149241,-0.02731050353605968,0.2280769661628523,0.9385325187662651,0.06627169996500015,0.4961133599281311,-0.8657248616218567,0,0,0,-1,-1,11365.78026116667,unknown,2,2021-03-13 00:53:28.069 -0500,2021-03-13 00:47:42.026 -0500,20,2.267731,0,0,14.11,0,0,2021-03-13 00:50:58.765 -0500,637307618.3664273,0,1.039999,99.51492,1,0.92
2021-03-13 00:53:40.487 -0500,0,0,0,0,0,0,0,0,0,11378.195583875,0.1055908203125,0.5449371337890625,-0.836761474609375,11378.195583875,0.5137155432251342,0.0805476207629421,-0.5413158919497429,-0.387077271938324,-0.07663917541503906,0.1689701825380325,0.04206563532352448,0.01966309547424316,0.01036530733108521,XArbitraryZVertical,-0.2682404956378439,-0.03034283546443385,0.2341840580791045,0.9339614815951253,0.06895721703767776,0.5152642130851746,-0.8542526960372925,0,0,0,-1,-1,11365.78026116667,unknown,2,2021-03-13 00:53:28.069 -0500,2021-03-13 00:47:42.026 -0500,20,2.267731,0,0,14.11,0,0,2021-03-13 00:50:58.765 -0500,637307618.3664273,0,1.039999,99.51492,1,0.92
2021-03-13 00:53:40.521 -0500,0,0,0,0,0,0,0,0,0,11378.230801875,0.084686279296875,0.615509033203125,-0.8415985107421875,11378.225765875,0.5201338992992649,0.08249876106259335,-0.5492300413214046,-0.1838788539171219,-0.05813753604888916,0.1016227081418037,0.01499566435813904,0.07388603687286377,0.01189100742340088,XArbitraryZVertical,-0.2720413274693237,-0.03131467324692838,0.2364927594309583,0.9322467346262968,0.0702856034040451,0.5220306515693665,-0.8500258326530457,0,0,0,-1,-1,11365.78026116667,unknown,2,2021-03-13 00:53:28.069 -0500,2021-03-13 00:47:42.026 -0500,20,2.267731,0,0,14.11,0,0,2021-03-13 00:50:58.765 -0500,637307618.3664273,0,1.039999,99.51492,1,0.92
2021-03-13 00:53:40.557 -0500,0,0,0,0,0,0,0,0,0,11378.265987875,0.06402587890625,0.581695556640625,-0.8286285400390625,11378.255947875,0.5243781527243878,0.083748788574671,-0.5532919758433702,-0.104173980653286,-0.05188324674963951,0.06485702097415924,0.001766785979270935,0.07335549592971802,0.00197678804397583,XArbitraryZVertical,-0.2740030979701401,-0.03183798642433829,0.238078364588595,0.9312504385711672,0.0711701437830925,0.5254908800125122,-0.8478173017501831,0,0,0,-1,-1,11365.78026116667,unknown,2,2021-03-13 00:53:28.069 -0500,2021-03-13 00:47:42.026 -0500,20,2.267731,0,0,14.11,0,0,2021-03-13 00:50:58.765 -0500,637307618.3664273,0,1.039999,99.51492,1,0.92
2021-03-13 00:53:40.592 -0500,0,0,0,0,0,0,0,0,0,11378.301205875,0.06292724609375,0.5634613037109375,-0.8311920166015625,11378.286099875,0.526714974971896,0.08428422987290789,-0.5558697721345554,-0.05213078856468201,-0.05986098945140839,0.01565776392817497,-0.01047474145889282,0.03385627269744873,0.02095639705657959,XArbitraryZVertical,-0.2752217210905478,-0.03224565177544583,0.2389507351480488,0.9306534275146868,0.07150981575250626,0.5276823043823242,-0.8464264273643494,0,0,0,-1,-1,11365.78026116667,unknown,2,2021-03-13 00:53:28.069 -0500,2021-03-13 00:47:42.026 -0500,20,2.267731,0,0,14.11,0,0,2021-03-13 00:50:58.765 -0500,637307618.3664273,0,1.039999,99.51492,1,0.92
2021-03-13 00:53:40.633 -0500,0,0,0,0,0,0,0,0,0,11378.336391875,0.047882080078125,0.533843994140625,-0.8332672119140625,11378.316280875,0.5274728553329774,0.08306770727962057,-0.5579758488675246,0.01862429641187191,-0.06453553587198257,0.01795986667275429,-0.01431173831224442,0.02388978004455566,0.01437926292419434,XArbitraryZVertical,-0.2760373523348456,-0.03319127192113883,0.2393547486555211,0.9302747564315307,0.07038769870996475,0.5294701457023621,-0.8454034328460693,0,0,0,-1,-1,11365.78026116667,unknown,2,2021-03-13 00:53:28.069 -0500,2021-03-13 00:47:42.026 -0500,20,2.267731,0,0,14.11,0,0,2021-03-13 00:50:58.765 -0500,637307618.3664273,0,1.039999,99.51492,1,0.92
2021-03-13 00:53:40.676 -0500,0,0,0,0,0,0,0,0,0,11378.371578875,0.058868408203125,0.5483551025390625,-0.8536834716796875,11378.346432875,0.5283906808285936,0.081384490693032,-0.5597710073653447,-0.02981709316372871,-0.0967680811882019,0.03764209151268005,-0.01934201270341873,0.007108926773071289,0.01302897930145264,XArbitraryZVertical,-0.2766497245328535,-0.03433561537141356,0.2399153995147426,0.9299067330093713,0.06888721883296967,0.5309921503067017,-0.8445720076560974,0,0,0,-1,-1,11365.78026116667,unknown,2,2021-03-13 00:53:28.069 -0500,2021-03-13 00:47:42.026 -0500,20,2.267731,0,0,14.11,0,0,2021-03-13 00:50:58.765 -0500,637307618.3664273,0,1.039999,99.51492,1,0.92
2021-03-13 00:53:40.705 -0500,0,0,0,0,0,0,0,0,0,11378.406796875,0.06695556640625,0.54132080078125,-0.847869873046875,11378.376614875,0.530411418166709,0.07883320887720686,-0.5606192732888539,0.04609149694442749,-0.1334449499845505,0.06229833513498306,-0.00782843679189682,0.01664423942565918,-0.009387850761413574,XArbitraryZVertical,-0.2766992670730015,-0.03591222226805794,0.2411612871832534,0.9295100569608438,0.06669675558805466,0.5317108035087585,-0.8442956805229187,0,0,0,-1,-1,11365.78026116667,unknown,2,2021-03-13 00:53:28.069 -0500,2021-03-13 00:47:42.026 -0500,20,2.267731,0,0,14.11,0,0,2021-03-13 00:50:58.765 -0500,637307618.3664273,0,1.039999,99.51492,1,0.92
2021-03-13 00:53:40.734 -0500,0,0,0,0,0,0,0,0,0,11378.441982875,0.062530517578125,0.5477142333984375,-0.841949462890625,11378.436947875,0.5336556931209006,0.06863700209582199,-0.5565934631761031,0.0495188981294632,-0.2350589632987976,0.004816267639398575,0.005718328058719635,0.006111562252044678,0.001021623611450195,XArbitraryZVertical,-0.2735395836487755,-0.04056900614748265,0.2442862078998677,0.9294377281253701,0.0582311637699604,0.5282968878746033,-0.84706050157547,0,0,0,-1,-1,11365.78026116667,unknown,2,2021-03-13 00:53:28.069 -0500,2021-03-13 00:47:42.026 -0500,20,2.267731,0,0,14.11,0,0,2021-03-13 00:50:58.765 -0500,637307618.3664273,0,1.039999,99.51492,1,0.92
2021-03-13 00:53:40.768 -0500,0,0,0,0,0,0,0,0,0,11378.477169875,0.05303955078125,0.5770263671875,-0.8463287353515625,11378.467129875,0.5325972483576077,0.06080075242456795,-0.5559844481436625,0.02209583856165409,-0.2626461088657379,-0.06485195457935333,0.008737210184335709,0.02660250663757324,0.00941765308380127,XArbitraryZVertical,-0.2723220196030534,-0.04398660704439613,0.2448948471842136,0.9294796314227579,0.05161120742559433,0.5277796983718872,-0.8478118181228638,0,0,0,-1,-1,11365.78026116667,unknown,2,2021-03-13 00:53:28.069 -0500,2021-03-13 00:47:42.026 -0500,20,2.267731,0,0,14.11,0,0,2021-03-13 00:50:58.765 -0500,637307618.3664273,0,1.039999,99.51492,1,0.92
2021-03-13 00:53:40.803 -0500,0,0,0,0,0,0,0,0,0,11378.51238179167,0.0376739501953125,0.55419921875,-0.850799560546875,11378.49727579167,0.5307900506919883,0.05187874579477569,-0.5568973643472142,-0.02453506737947464,-0.2971531450748444,-0.0604206919670105,0.0026869997382164,0.03724086284637451,-0.002066075801849365,XArbitraryZVertical,-0.271692772794329,-0.04800569524825577,0.2452235971946345,0.9293781681993478,0.04402006790041924,0.5285549163818359,-0.8477569818496704,0,0,0,-1,-1,11365.78026116667,unknown,2,2021-03-13 00:53:28.069 -0500,2021-03-13 00:47:42.026 -0500,20,2.267731,0,0,14.11,0,0,2021-03-13 00:50:58.765 -0500,637307618.3664273,0,1.039999,99.51492,1,0.92
2021-03-13 00:53:40.842 -0500,0,0,0,0,0,0,0,0,0,11378.54756879167,0.01519775390625,0.55029296875,-0.811920166015625,11378.52745779167,0.5289457744833662,0.04271920876968293,-0.5582068820303981,-0.02934998646378517,-0.2865043580532074,-0.08211565017700195,-0.001967780292034149,0.01188349723815918,0.001164615154266357,XArbitraryZVertical,-0.2712213952475328,-0.05218022219809475,0.2455483460253334,0.9292050530246698,0.03622367605566978,0.5296661257743835,-0.8474323749542236,0,0,0,-1,-1,11365.78026116667,unknown,2,2021-03-13 00:53:28.069 -0500,2021-03-13 00:47:42.026 -0500,20,2.267731,0,0,14.11,0,0,2021-03-13 00:50:58.765 -0500,637307618.3664273,0,1.039999,99.51492,1,0.92
2021-03-13 00:53:40.873 -0500,0,0,0,0,0,0,0,0,0,11378.58275579167,0.0133514404296875,0.5447998046875,-0.80426025390625,11378.55763979167,0.5261327730494653,0.03466007469118682,-0.5578168019024468,0.1559654623270035,-0.1921092122793198,-0.09698288142681122,-0.01737632602453232,0.02400946617126465,0.03943151235580444,XArbitraryZVertical,-0.2701273282588388,-0.05549428028871929,0.2453494711753853,0.929384350568673,0.02940016239881516,0.5293352007865906,-0.8479032516479492,0,0,0,-1,-1,11365.78026116667,unknown,2,2021-03-13 00:53:28.069 -0500,2021-03-13 00:47:42.026 -0500,20,2.267731,0,0,14.11,0,0,2021-03-13 00:50:58.765 -0500,637307618.3664273,0,1.039999,99.51492,1,0.92
2021-03-13 00:53:40.910 -0500,0,0,0,0,0,0,0,0,0,11378.61797279167,0.000946044921875,0.500457763671875,-0.830810546875,11378.58779079167,0.5227878723281774,0.02798101202490045,-0.5513789556583789,0.3246967494487762,-0.1752050369977951,-0.09152571111917496,-0.01047984510660172,0.02093738317489624,0.04720926284790039,XArbitraryZVertical,-0.2664167850950001,-0.05733527660303264,0.244965370017147,0.9304443983306431,0.0238311979919672,0.5238623023033142,-0.8514695167541504,0,0,0,-1,-1,11365.78026116667,unknown,2,2021-03-13 00:53:28.069 -0500,2021-03-13 00:47:42.026 -0500,20,2.267731,0,0,14.11,0,0,2021-03-13 00:50:58.765 -0500,637307618.3664273,0,1.039999,99.51492,1,0.92
2021-03-13 00:53:40.944 -0500,0,0,0,0,0,0,0,0,0,11378.65315979167,-0.0123748779296875,0.518218994140625,-0.850921630859375,11378.64812479167,0.5153079429736224,0.01512737317543416,-0.5319524217001639,0.4853385984897614,-0.1417305916547775,-0.08416839689016342,-0.03098097443580627,-7.587671279907227e-05,0.01803082227706909,XArbitraryZVertical,-0.2560269349050544,-0.05991916185409329,0.2439230166487806,0.9334674388783037,0.01303655188530684,0.5072169303894043,-0.8617197871208191,0,0,0,-1,-1,11365.78026116667,unknown,2,2021-03-13 00:53:28.069 -0500,2021-03-13 00:47:42.026 -0500,20,2.267731,0,0,14.11,0,0,2021-03-13 00:50:58.765 -0500,637307618.3664273,0,1.039999,99.51492,1,0.92
2021-03-13 00:53:40.979 -0500,0,0,0,0,0,0,0,0,0,11378.68837679167,-0.0306243896484375,0.4856719970703125,-0.8478851318359375,11378.67830579167,0.5121572494545412,0.008783566033653351,-0.5150302203428641,0.7389552593231201,-0.1664693802595139,-0.08837756514549255,-0.02125497907400131,0.0140610933303833,0.02019232511520386,XArbitraryZVertical,-0.2474468439449061,-0.06039816771076065,0.243852649967446,0.9357659113241137,0.007644044235348701,0.4925611615180969,-0.8702442646026611,0,0,0,-1,-1,11365.78026116667,unknown,2,2021-03-13 00:53:28.069 -0500,2021-03-13 00:47:42.026 -0500,20,2.267731,0,0,14.11,0,0,2021-03-13 00:50:58.765 -0500,637307620.9440405,0,1.019999,99.51524,1,0.92
2021-03-13 00:53:41.014 -0500,0,0,0,0,0,0,0,0,0,11378.72356379167,-0.037017822265625,0.448760986328125,-0.8833465576171875,11378.70848779167,0.5090948911095934,0.002036322873396073,-0.4930462972542136,0.779769241809845,-0.1738978624343872,-0.08328386396169662,-0.03514958173036575,0.00335770845413208,0.02138090133666992,XArbitraryZVertical,-0.2364188103948169,-0.06049392164811622,0.2439539284815005,0.9385803271775919,0.001793785602785647,0.4733115434646606,-0.8808932900428772,0,0,0,-1,-1,11365.78026116667,unknown,2,2021-03-13 00:53:28.069 -0500,2021-03-13 00:47:42.026 -0500,20,2.267731,0,0,14.11,0,0,2021-03-13 00:50:58.765 -0500,637307620.9440405,0,1.019999,99.51524,1,0.92
2021-03-13 00:53:41.049 -0500,0,0,0,0,0,0,0,0,0,11378.75875079167,-0.0458984375,0.445526123046875,-0.891998291015625,11378.73863979167,0.5062829021011049,-0.004718582563292156,-0.4742364502182916,0.5725707411766052,-0.1669079959392548,-0.07893114537000656,-0.03214868903160095,-0.02526286244392395,0.006803989410400391,XArbitraryZVertical,-0.2268412519286471,-0.06105053125502671,0.2439746307687502,0.9408997027518872,-0.004197832196950912,0.4566592872142792,-0.8896317481994629,0,0,0,-1,-1,11365.78026116667,unknown,2,2021-03-13 00:53:28.069 -0500,2021-03-13 00:47:42.026 -0500,20,2.267731,0,0,14.11,0,0,2021-03-13 00:50:58.765 -0500,637307620.9440405,0,1.019999,99.51524,1,0.92
2021-03-13 00:53:41.086 -0500,0,0,0,0,0,0,0,0,0,11378.79396779167,-0.0471343994140625,0.4197235107421875,-0.90374755859375,11378.76882179167,0.5039714111907155,-0.01105604051444377,-0.4622037353666293,0.3667786121368408,-0.1619284600019455,-0.05188208073377609,-0.03635372966527939,-0.0009602010250091553,0.0007148981094360352,XArbitraryZVertical,-0.2204716245939512,-0.06231872525919206,0.2439214636264516,0.9423433545091509,-0.009895750321447849,0.4459216892719269,-0.8950172662734985,0,0,0,-1,-1,11365.78026116667,unknown,2,2021-03-13 00:53:28.069 -0500,2021-03-13 00:47:42.026 -0500,20,2.267731,0,0,14.11,0,0,2021-03-13 00:50:58.765 -0500,637307620.9440405,0,1.019999,99.51524,1,0.92
2021-03-13 00:53:41.120 -0500,0,0,0,0,0,0,0,0,0,11378.82915479167,-0.064361572265625,0.4258270263671875,-0.875518798828125,11378.79897279167,0.501919402226324,-0.01760101976299164,-0.455015461099108,0.2039818167686462,-0.1671372205018997,-0.06621391326189041,-0.03132511675357819,-0.01975277066230774,-0.005632460117340088,XArbitraryZVertical,-0.2163471465901825,-0.0643146048909153,0.2438479331500872,0.9431837704824148,-0.01580937393009663,0.4394761919975281,-0.8981150984764099,0,0,0,-1,-1,11365.78026116667,unknown,2,2021-03-13 00:53:28.069 -0500,2021-03-13 00:47:42.026 -0500,20,2.267731,0,0,14.11,0,0,2021-03-13 00:50:58.765 -0500,637307620.9440405,0,1.019999,99.51524,1,0.92
2021-03-13 00:53:41.155 -0500,0,0,0,0,0,0,0,0,0,11378.86434179167,-0.061065673828125,0.4026947021484375,-0.9017181396484375,11378.85933679167,0.4983045321559796,-0.02820047916192352,-0.4474061472173487,0.04599372670054436,-0.1192983388900757,-0.05267553776502609,-0.03190594911575317,-0.02885046601295471,0.00822371244430542,XArbitraryZVertical,-0.2115803765061381,-0.06802082861590003,0.2434457571248072,0.9441085431010092,-0.02542140148580074,0.4326284527778625,-0.9012138247489929,0,0,0,-1,-1,11365.78026116667,unknown,2,2021-03-13 00:53:28.069 -0500,2021-03-13 00:47:42.026 -0500,20,2.267731,0,0,14.11,0,0,2021-03-13 00:50:58.765 -0500,637307620.9440405,0,1.019999,99.51524,1,0.92
2021-03-13 00:53:41.190 -0500,0,0,0,0,0,0,0,0,0,11378.89955879167,-0.074676513671875,0.41265869140625,-0.88421630859375,11378.88948779167,0.4956046177055133,-0.03288903583525225,-0.4462459818981864,0.007973950356245041,-0.07614487409591675,-0.08039005100727081,-0.04389972239732742,-0.01802331209182739,0.01337164640426636,XArbitraryZVertical,-0.210554864800039,-0.06981228563548132,0.2426890638420835,0.9444018933261693,-0.02966298349201679,0.4315821826457977,-0.9015857577323914,0,0,0,-1,-1,11365.78026116667,unknown,2,2021-03-13 00:53:28.069 -0500,2021-03-13 00:47:42.026 -0500,20,2.267731,0,0,14.11,0,0,2021-03-13 00:50:58.765 -0500,637307620.9440405,0,1.019999,99.51524,1,0.92
2021-03-13 00:53:41.225 -0500,0,0,0,0,0,0,0,0,0,11378.93474579167,-0.082977294921875,0.404327392578125,-0.8803558349609375,11378.91966979167,0.4924544102395575,-0.03737420960799145,-0.4462355853676112,-0.003440135857090354,-0.0850270688533783,-0.08277604728937149,-0.03999342024326324,-0.02120298147201538,0.01685035228729248,XArbitraryZVertical,-0.2101182078196455,-0.07159792753407747,0.2416732570606045,0.9446258831909621,-0.03370660915970802,0.4315727949142456,-0.901448130607605,0,0,0,-1,-1,11365.78026116667,unknown,2,2021-03-13 00:53:28.069 -0500,2021-03-13 00:47:42.026 -0500,20,2.267731,0,0,14.11,0,0,2021-03-13 00:50:58.765 -0500,637307620.9440405,0,1.019999,99.51524,1,0.92
2021-03-13 00:53:41.260 -0500,0,0,0,0,0,0,0,0,0,11378.96996279167,-0.09124755859375,0.401275634765625,-0.913909912109375,11378.94982079167,0.4898112417117731,-0.04136164384160432,-0.4452994214907891,0.02138203382492065,-0.06451064348220825,-0.06463047116994858,-0.05267893522977829,-0.03467106819152832,0.01660853624343872,XArbitraryZVertical,-0.2092895732178345,-0.07309538689560979,0.2408591780012342,0.9449030984777101,-0.03731748461723328,0.4307281076908112,-0.9017098546028137,0,0,0,-1,-1,11365.78026116667,unknown,2,2021-03-13 00:53:28.069 -0500,2021-03-13 00:47:42.026 -0500,20,2.267731,0,0,14.11,0,0,2021-03-13 00:50:58.765 -0500,637307620.9440405,0,1.019999,99.51524,1,0.92
2021-03-13 00:53:41.296 -0500,0,0,0,0,0,0,0,0,0,11379.00514979167,-0.091064453125,0.398681640625,-0.9336395263671875,11378.98000279167,0.4876841082972565,-0.04532498960581061,-0.4436843798847587,0.0472148209810257,-0.06963028758764267,-0.04193086549639702,-0.05165272206068039,-0.02556830644607544,-0.01750540733337402,XArbitraryZVertical,-0.2081263480272258,-0.07455940993862414,0.2402941562142143,0.9451893960009449,-0.04092243686318398,0.4292700290679932,-0.9022486209869385,0,0,0,-1,-1,11365.78026116667,unknown,2,2021-03-13 00:53:28.069 -0500,2021-03-13 00:47:42.026 -0500,20,2.267731,0,0,14.11,0,0,2021-03-13 00:50:58.765 -0500,637307620.9440405,0,1.019999,99.51524,1,0.92
2021-03-13 00:53:41.331 -0500,0,0,0,0,0,0,0,0,0,11379.04033579167,-0.1013336181640625,0.407684326171875,-0.9091644287109375,11379.01018479167,0.4860464526542944,-0.04953665435887349,-0.4427774094040803,-0.03419248759746552,-0.1035506576299667,-0.01841997914016247,-0.04632324725389481,-0.02976912260055542,-0.03118276596069336,XArbitraryZVertical,-0.2072526210606294,-0.07627559397762119,0.2399713483295987,0.9453264535251559,-0.04474129155278206,0.4284506738185883,-0.9024567604064941,0,0,0,-1,-1,11365.78026116667,unknown,2,2021-03-13 00:53:28.069 -0500,2021-03-13 00:47:42.026 -0500,20,2.267731,0,0,14.11,0,0,2021-03-13 00:50:58.765 -0500,637307620.9440405,0,1.019999,99.51524,1,0.92
2021-03-13 00:53:41.366 -0500,0,0,0,0,0,0,0,0,0,11379.07555379167,-0.105560302734375,0.4211578369140625,-0.9356842041015625,11379.07051779167,0.4840148601142327,-0.06094076196697942,-0.4415805887269928,0.02788722887635231,-0.1714870184659958,-0.03508292883634567,-0.0447009950876236,-0.004380166530609131,-0.03093534708023071,XArbitraryZVertical,-0.2053962524730641,-0.08131947895127342,0.2402034458570289,0.9452522378140868,-0.05506106466054916,0.4273689687252045,-0.9023990631103516,0,0,0,-1,-1,11365.78026116667,unknown,2,2021-03-13 00:53:28.069 -0500,2021-03-13 00:47:42.026 -0500,20,2.267731,0,0,14.11,0,0,2021-03-13 00:50:58.765 -0500,637307620.9440405,0,1.019999,99.51524,1,0.92
2021-03-13 00:53:41.401 -0500,0,0,0,0,0,0,0,0,0,11379.11074079167,-0.102508544921875,0.443145751953125,-0.8930816650390625,11379.10066979167,0.4815000274843229,-0.06800190094347028,-0.4396750166110847,-0.01430423557758331,-0.1768979877233505,-0.08909319341182709,-0.03842780739068985,0.01513516902923584,-0.01596361398696899,XArbitraryZVertical,-0.2037490951122212,-0.08418429253774098,0.2397576333073372,0.9454710942978678,-0.06148682907223701,0.4256454110145569,-0.902798593044281,0,0,0,-1,-1,11365.78026116667,unknown,2,2021-03-13 00:53:28.069 -0500,2021-03-13 00:47:42.026 -0500,20,2.267731,0,0,14.11,0,0,2021-03-13 00:50:58.765 -0500,637307620.9440405,0,1.019999,99.51524,1,0.92
2021-03-13 00:53:41.437 -0500,0,0,0,0,0,0,0,0,0,11379.14592679167,-0.1138763427734375,0.4290924072265625,-0.8859100341796875,11379.13085179167,0.4782734288889434,-0.07547514099715874,-0.4401508904190624,-0.03238200768828392,-0.1604103744029999,-0.07058554142713547,-0.04283694177865982,0.01691707968711853,0.02343446016311646,XArbitraryZVertical,-0.2032189538435703,-0.08744226191462048,0.2389884109850263,0.9454841609267287,-0.06821659952402115,0.4260759651660919,-0.902111828327179,0,0,0,-1,-1,11365.78026116667,unknown,2,2021-03-13 00:53:28.069 -0500,2021-03-13 00:47:42.026 -0500,20,2.267731,0,0,14.11,0,0,2021-03-13 00:50:58.765 -0500,637307620.9440405,0,1.019999,99.51524,1,0.92
2021-03-13 00:53:41.472 -0500,0,0,0,0,0,0,0,0,0,11379.18114479167,-0.1074371337890625,0.4503021240234375,-0.9025115966796875,11379.16103279167,0.4759434175660142,-0.08088068582753638,-0.4346021813759936,0.4051265120506287,-0.1287962645292282,-0.09446727484464645,-0.02533578127622604,0.02230969071388245,0.01402723789215088,XArbitraryZVertical,-0.2000414538788522,-0.08914705193884963,0.2384707757967108,0.946133057989073,-0.07328186184167862,0.4210495948791504,-0.9040724635124207,0,0,0,-1,-1,11365.78026116667,unknown,2,2021-03-13 00:53:28.069 -0500,2021-03-13 00:47:42.026 -0500,20,2.267731,0,0,14.11,0,0,2021-03-13 00:50:58.765 -0500,637307620.9440405,0,1.019999,99.51524,1,0.92
2021-03-13 00:53:41.507 -0500,0,0,0,0,0,0,0,0,0,11379.21633079167,-0.128143310546875,0.3394622802734375,-0.82769775390625,11379.19118479167,0.474387613843444,-0.08623008978004294,-0.4142405370206961,0.985410213470459,-0.1070827543735504,-0.08265717327594757,-0.03580021113157272,0.04149007797241211,0.0178254246711731,XArbitraryZVertical,-0.1897876692993203,-0.08927562640796551,0.2383555015632197,0.9482600874906342,-0.07883915305137634,0.4024948179721832,-0.9120209813117981,0,0,0,-1,-1,11365.78026116667,unknown,2,2021-03-13 00:53:28.069 -0500,2021-03-13 00:47:42.026 -0500,20,2.267731,0,0,14.11,0,0,2021-03-13 00:50:58.765 -0500,637307620.9440405,0,1.019999,99.51524,1,0.92
2021-03-13 00:53:41.542 -0500,0,0,0,0,0,0,0,0,0,11379.25151779167,-0.11041259765625,0.288482666015625,-0.88177490234375,11379.25151779167,0.4772063258382424,-0.09001384109698883,-0.3400302753646817,1.377523064613342,-0.05978941544890404,-0.02988666668534279,-0.02530096471309662,-0.0445752739906311,0.06299704313278198,XArbitraryZVertical,-0.1537569917332573,-0.08303530901515428,0.2400989511103514,0.9548907328369591,-0.08474551141262054,0.3335156440734863,-0.9389278292655945,0,0,0,-1,-1,11365.78026116667,unknown,2,2021-03-13 00:53:28.069 -0500,2021-03-13 00:47:42.026 -0500,20,2.267731,0,0,14.11,0,0,2021-03-13 00:50:58.765 -0500,637307620.9440405,0,1.019999,99.51524,1,0.92
2021-03-13 00:53:41.577 -0500,0,0,0,0,0,0,0,0,0,11379.28673479167,-0.0853271484375,0.156341552734375,-0.932769775390625,11379.28169979167,0.4818183131845689,-0.08923063456822471,-0.2949803873441127,1.659651637077332,0.009994420222938061,0.003435018938034773,-0.00717451423406601,-0.1134140193462372,0.02105545997619629,XArbitraryZVertical,-0.1320446416545533,-0.07786898873933951,0.2421255102749193,0.9580583664737574,-0.08526331931352615,0.2907210886478424,-0.9530012607574463,0,0,0,-1,-1,11365.78026116667,unknown,2,2021-03-13 00:53:28.069 -0500,2021-03-13 00:47:42.026 -0500,20,2.267731,0,0,14.11,0,0,2021-03-13 00:50:58.765 -0500,637307620.9440405,0,1.019999,99.51524,1,0.92
2021-03-13 00:53:41.612 -0500,0,0,0,0,0,0,0,0,0,11379.32192179167,-0.0933685302734375,0.0184783935546875,-0.9274749755859375,11379.31188179167,0.4871811762181042,-0.08654833072603757,-0.2404469971674808,1.917372465133667,0.1060610339045525,0.05017243325710297,-0.001144781708717346,-0.1302724778652191,0.009237587451934814,XArbitraryZVertical,-0.1059257895258041,-0.07058015738959929,0.2442589094547263,0.9613198275618021,-0.08395357429981232,0.2381367832422256,-0.9675963521003723,0,0,0,-1,-1,11365.78026116667,unknown,2,2021-03-13 00:53:28.069 -0500,2021-03-13 00:47:42.026 -0500,20,2.267731,0,0,14.11,0,0,2021-03-13 00:50:58.765 -0500,637307620.9440405,0,1.019999,99.51524,1,0.92
2021-03-13 00:53:41.648 -0500,0,0,0,0,0,0,0,0,0,11379.35713879167,-0.0861358642578125,-0.0318603515625,-0.861602783203125,11379.34203279167,0.4942001918195141,-0.07920438050223758,-0.1885714317912886,1.40723717212677,0.2529642283916473,0.1163650155067444,-0.01909808814525604,-0.2023637443780899,0.07182967662811279,XArbitraryZVertical,-0.08157401135024567,-0.06122818939176904,0.2469300512482459,0.9636505562204976,-0.07771901041269302,0.1874558478593826,-0.9791935682296753,0,0,0,-1,-1,11365.78026116667,unknown,2,2021-03-13 00:53:28.069 -0500,2021-03-13 00:47:42.026 -0500,20,2.267731,0,0,14.11,0,0,2021-03-13 00:50:58.765 -0500,637307620.9440405,0,1.019999,99.51524,1,0.92
2021-03-13 00:53:41.683 -0500,0,0,0,0,0,0,0,0,0,11379.39232579167,-0.08526611328125,-0.0587615966796875,-0.8953399658203125,11379.37221479167,0.5034065466350385,-0.06837255804779341,-0.1570593946207432,0.8331480026245117,0.3713128566741943,0.2331844717264175,-0.009273402392864227,-0.2472043484449387,0.1485918164253235,XArbitraryZVertical,-0.06744632465307027,-0.05252721013001086,0.2507381731580992,0.9642728745000172,-0.06747838854789734,0.1564144790172577,-0.9853837490081787,0,0,0,-1,-1,11365.78026116667,unknown,2,2021-03-13 00:53:28.069 -0500,2021-03-13 00:47:42.026 -0500,20,2.267731,0,0,14.11,0,0,2021-03-13 00:50:58.765 -0500,637307620.9440405,0,1.019999,99.51524,1,0.92
2021-03-13 00:53:41.718 -0500,0,0,0,0,0,0,0,0,0,11379.42751279167,-0.0293121337890625,-0.0304412841796875,-1.0040283203125,11379.40236579167,0.5127847268385637,-0.05403661666718972,-0.1304720832328617,1.124257564544678,0.5206735730171204,0.2472842484712601,-0.02582503855228424,-0.1568662077188492,0.05220240354537964,XArbitraryZVertical,-0.05619955087334406,-0.04260195004646077,0.2546642554248832,0.9644546837146769,-0.05355126783251762,0.1301022320985794,-0.9900533556938171,0,0,0,-1,-1,11365.78026116667,unknown,2,2021-03-13 00:53:28.069 -0500,2021-03-13 00:47:42.026 -0500,20,2.267731,0,0,14.11,0,0,2021-03-13 00:50:58.765 -0500,637307620.9440405,0,1.019999,99.51524,1,0.92
2021-03-13 00:53:41.753 -0500,0,0,0,0,0,0,0,0,0,11379.46272979167,-0.0162811279296875,-0.16180419921875,-0.852294921875,11379.43254779167,0.5249399339176479,-0.03310570678667635,-0.09046708810814262,1.465925693511963,0.7680637240409851,0.4725981056690216,0.003652080893516541,-0.12078507989645,-0.008663356304168701,XArbitraryZVertical,-0.0393731858026131,-0.0276998637154381,0.2598886414827862,0.9644377970162933,-0.0329643040895462,0.09034373611211777,-0.9953649640083313,0,0,0,-1,-1,11365.78026116667,unknown,2,2021-03-13 00:53:28.069 -0500,2021-03-13 00:47:42.026 -0500,20,2.267731,0,0,14.11,0,0,2021-03-13 00:50:58.765 -0500,637307620.9440405,0,1.019999,99.51524,1,0.92
2021-03-13 00:53:41.789 -0500,0,0,0,0,0,0,0,0,0,11379.4979385,0.0308685302734375,-0.058868408203125,-0.862823486328125,11379.4929035,0.5552224582865539,0.03240480528413351,-0.0151704688445281,1.18185567855835,1.425188660621643,0.4365887641906738,-0.03381456807255745,-0.1509884297847748,0.2361153960227966,XArbitraryZVertical,-0.01173388451403888,0.01350241900698348,0.2738970831417151,0.9615926119967726,0.03239540755748749,0.01516988687217236,-0.9993600249290466,0,0,0,-1,-1,11365.78026116667,unknown,2,2021-03-13 00:53:28.069 -0500,2021-03-13 00:47:42.026 -0500,20,2.267731,0,0,14.11,0,0,2021-03-13 00:50:58.765 -0500,637307620.9440405,0,1.019999,99.51524,1,0.92
2021-03-13 00:53:41.824 -0500,0,0,0,0,0,0,0,0,0,11379.5331255,0.1689910888671875,0.08966064453125,-0.9480133056640625,11379.5230855,0.5616804430663992,0.08233461732699093,0.02819942378148475,1.632377982139587,1.808774948120117,0.2429818958044052,0.0706382691860199,0.1827061325311661,0.02140843868255615,XArbitraryZVertical,0.002129699015901638,0.04344386974447945,0.2774582285012421,0.9597525809014338,0.08220892399549484,-0.02819568663835526,-0.9962161779403687,0,0,0,-1,-1,11365.78026116667,unknown,2,2021-03-13 00:53:28.069 -0500,2021-03-13 00:47:42.026 -0500,20,2.267731,0,0,14.11,0,0,2021-03-13 00:50:58.765 -0500,637307620.9440405,0,1.019999,99.51524,1,0.92
2021-03-13 00:53:41.859 -0500,0,0,0,0,0,0,0,0,0,11379.5683425,0.16339111328125,-0.0594635009765625,-0.84515380859375,11379.5532365,0.5613061191821875,0.1396976962429314,0.07821150899558116,1.565380215644836,1.994453549385071,0.05795247107744217,0.0008149892091751099,0.09247501194477081,0.09437817335128784,XArbitraryZVertical,0.01815810238441604,0.07781263240275589,0.278718377579708,0.9570431471951493,0.1388181000947952,-0.07813179492950439,-0.9872309565544128,0,0,0,-1,-1,11365.78026116667,unknown,2,2021-03-13 00:53:28.069 -0500,2021-03-13 00:47:42.026 -0500,20,2.267731,0,0,14.11,0,0,2021-03-13 00:50:58.765 -0500,637307620.9440405,0,1.019999,99.51524,1,0.92
2021-03-13 00:53:41.894 -0500,0,0,0,0,0,0,0,0,0,11379.6035295,0.294464111328125,0.047149658203125,-1.006088256835938,11379.5834185,0.5511306906153676,0.2030283817022641,0.1227706144949954,1.525538325309753,2.104504585266113,-0.2503542602062225,0.005615413188934326,0.08646690100431442,0.1299250721931458,XArbitraryZVertical,0.03120658793949211,0.1139388326301984,0.2761627283229329,0.9538229018636505,0.200118750333786,-0.1224624365568161,-0.9720881581306458,0,0,0,-1,-1,11365.78026116667,unknown,2,2021-03-13 00:53:28.069 -0500,2021-03-13 00:47:42.026 -0500,20,2.267731,0,0,14.11,0,0,2021-03-13 00:50:58.765 -0500,637307620.9440405,0,1.019999,99.51524,1,0.92
2021-03-13 00:53:41.930 -0500,0,0,0,0,0,0,0,0,0,11379.6387465,0.4176025390625,-0.0045623779296875,-1.202056884765625,11379.6136005,0.5278565097882449,0.2703496953033637,0.166854040835873,1.64173150062561,2.095237255096436,-0.5086049437522888,0.04819443821907043,0.2095836699008942,-0.0804980993270874,XArbitraryZVertical,0.04467679433698141,0.1511850441129565,0.268437004413935,0.95030975365669,0.2633594274520874,-0.1660809069871902,-0.9502941370010376,0,0,0,-1,-1,11365.78026116667,unknown,2,2021-03-13 00:53:28.069 -0500,2021-03-13 00:47:42.026 -0500,20,2.267731,0,0,14.11,0,0,2021-03-13 00:50:58.765 -0500,637307620.9440405,0,1.019999,99.51524,1,0.92
2021-03-13 00:53:41.965 -0500,0,0,0,0,0,0,0,0,0,11379.6739335,0.4682159423828125,-0.0916748046875,-1.253555297851562,11379.6437515,0.4958311093612412,0.3368772975911056,0.2089527253884874,1.596859455108643,1.864421844482422,-0.6498721837997437,0.09425058960914612,0.2028731107711792,-0.2787941098213196,XArbitraryZVertical,0.05875454414921609,0.1868596508502638,0.2575403687534262,0.9462052136488398,0.3233518302440643,-0.2074355185031891,-0.9232627749443054,0,0,0,-1,-1,11365.78026116667,unknown,2,2021-03-13 00:53:28.069 -0500,2021-03-13 00:47:42.026 -0500,20,2.267731,0,0,14.11,0,0,2021-03-13 00:50:58.765 -0500,637307620.9440405,0,1.019999,99.51524,1,0.92
2021-03-13 00:53:42.047 -0500,0,0,0,0,0,0,0,0,0,11379.7091205,0.4461669921875,-0.0992279052734375,-1.21466064453125,11379.7040845,0.4263058785006955,0.4326816589219406,0.2575235443162856,0.6182255744934082,0.7215849757194519,-0.7823001146316528,0.04921689629554749,0.1812764406204224,-0.3276897668838501,XArbitraryZVertical,0.07754158192163914,0.2345926425641487,0.2318404925694642,0.94085259058601,0.4054796397686005,-0.2546865344047546,-0.8779072165489197,0,0,0,-1,-1,11365.78026116667,unknown,2,2021-03-13 00:53:28.069 -0500,2021-03-13 00:47:42.026 -0500,20,2.267731,0,0,14.11,0,0,2021-03-13 00:50:58.765 -0500,637307620.9440405,0,1.019999,99.51524,1,0.92
2021-03-13 00:53:42.100 -0500,0,0,0,0,0,0,0,0,0,11379.7443375,0.4176788330078125,-0.22393798828125,-1.14813232421875,11379.7342665,0.3996543810915474,0.4525328687675736,0.2580973575834968,0.1603759378194809,0.1660678088665009,-0.7406484484672546,0.01408159732818604,0.08353421092033386,-0.3219438791275024,XArbitraryZVertical,0.07875367333366548,0.2429422002995648,0.2201279495180669,0.9414459671069939,0.4227621257305145,-0.2552413940429688,-0.8695538640022278,0,0,0,-1,-1,11365.78026116667,unknown,2,2021-03-13 00:53:28.069 -0500,2021-03-13 00:47:42.026 -0500,20,2.267731,0,0,14.11,0,0,2021-03-13 00:50:58.765 -0500,637307620.9440405,0,1.019999,99.51524,1,0.92
2021-03-13 00:53:42.124 -0500,0,0,0,0,0,0,0,0,0,11379.7795245,0.3514251708984375,-0.2785186767578125,-1.076019287109375,11379.7644485,0.3800415468092567,0.4555011279629962,0.2488140569428416,-0.1314961761236191,-0.2701197862625122,-0.6788672804832458,-0.03664073348045349,-0.008979111909866333,-0.2380890846252441,XArbitraryZVertical,0.0763893703615721,0.2428411562353228,0.2100924882718881,0.9439566288028992,0.4263653755187988,-0.2462547123432159,-0.8703856468200684,0,0,0,-1,-1,11365.78026116667,unknown,2,2021-03-13 00:53:28.069 -0500,2021-03-13 00:47:42.026 -0500,20,2.267731,0,0,14.11,0,0,2021-03-13 00:50:58.765 -0500,637307620.9440405,0,1.019999,99.51524,1,0.92
