loggingTime,loggingSample,locationTimestamp_since1970,locationLatitude,locationLongitude,locationAltitude,locationSpeed,locationCourse,locationVerticalAccuracy,locationHorizontalAccuracy,locationFloor,locationHeadingTimestamp_since1970,locationHeadingX,locationHeadingY,locationHeadingZ,locationTrueHeading,locationMagneticHeading,locationHeadingAccuracy,accelerometerTimestamp_sinceReboot,accelerometerAccelerationX,accelerometerAccelerationY,accelerometerAccelerationZ,gyroTimestamp_sinceReboot,gyroRotationX,gyroRotationY,gyroRotationZ,magnetometerTimestamp_sinceReboot,magnetometerX,magnetometerY,magnetometerZ,motionTimestamp_sinceReboot,motionYaw,motionRoll,motionPitch,motionRotationRateX,motionRotationRateY,motionRotationRateZ,motionUserAccelerationX,motionUserAccelerationY,motionUserAccelerationZ,motionAttitudeReferenceFrame,motionQuaternionX,motionQuaternionY,motionQuaternionZ,motionQuaternionW,motionGravityX,motionGravityY,motionGravityZ,motionMagneticFieldX,motionMagneticFieldY,motionMagneticFieldZ,motionHeading,motionMagneticFieldCalibrationAccuracy,activityTimestamp_sinceReboot,activity,activityActivityConfidence,activityActivityStartDate,pedometerStartDate,pedometerNumberofSteps,pedometerAverageActivePace,pedometerCurrentPace,pedometerCurrentCadence,pedometerDistance,pedometerFloorAscended,pedometerFloorDescended,pedometerEndDate,altimeterTimestamp_sinceReboot,altimeterReset,altimeterRelativeAltitude,altimeterPressure,IP_Timestamp_since1970,IP_en0,IP_pdp_ip0,deviceID,deviceOrientationTimeStamp_since1970,deviceOrientation,batteryTimeStamp_since1970,batteryState,batteryLevel,avAudioRecorder_Timestamp_since1970,avAudioRecorderPeakPower,avAudioRecorderAveragePower,label
1617673907.053286,1,0,0,0,0,0,0,0,0,0,1617673907.039012,-14.29119777679443,-1.591915130615234,-33.48717498779297,66.85018157958984,73.87852478027344,17.06080627441406,1048109.437707167,0.003631591796875,-0.10345458984375,-0.8938751220703125,1048109.416538167,0.6958930492401123,0.3490692973136902,0.1601896733045578,1048109.404680167,-3.167739868164062,33.15872192382812,-103.9114074707031,1048109.416538167,-1.69475419404504,0.03433729064249738,0.1005958589836141,0.6845393776893616,0.343762993812561,0.162115067243576,-0.0002214722335338593,0.04311426728963852,-0.06483083963394165,2,-0.04612763879894621,0.02632931918691379,0.7479171394405366,-0.6616638578251184,0.03415698558092117,-0.1004262790083885,-0.9943580031394958,-14.4274845123291,-1.505287170410156,-33.43093872070312,-1,2,1048107.07465925,1,2,1617673904.663829,1617673410.617,79,1.496211,0,0,51.15003,0,0,1617673906.263914,1048106.595935,0,-0.4624023,98.16087,0,0,0,0,0,1,1617673907.041595,1,0.1,1617673907.053263,-20.6412,-28.50868,0
1617673907.078415,2,0,0,0,0,0,0,0,0,0,1617673907.058723,-13.99824333190918,-1.768756866455078,-33.76291656494141,66.80054473876953,73.82888793945312,17.0610523223877,1048109.471328167,0.0686798095703125,-0.09521484375,-1.068878173828125,1048109.450159167,0.4315865635871887,0.7682039737701416,0.02309147082269192,1048109.464665167,-1.951980590820312,32.3148193359375,-104.2053680419922,1048109.416538167,-1.69475419404504,0.03433729064249738,0.1005958589836141,0.6845393776893616,0.343762993812561,0.162115067243576,-0.0002214722335338593,0.04311426728963852,-0.06483083963394165,2,-0.04612763879894621,0.02632931918691379,0.7479171394405366,-0.6616638578251184,0.03415698558092117,-0.1004262790083885,-0.9943580031394958,-14.4274845123291,-1.505287170410156,-33.43093872070312,-1,2,1048107.07465925,1,2,1617673904.663829,1617673410.617,79,1.496211,0,0,51.15003,0,0,1617673906.263914,1048106.595935,0,-0.4624023,98.16087,0,0,0,0,0,1,1617673907.041595,1,0.1,1617673907.053263,-20.6412,-28.50868,0
1617673907.118176,3,0,0,0,0,0,0,0,0,0,1617673907.098673,-13.05788230895996,-2.493198394775391,-34.19941711425781,67.02907562255859,74.05741882324219,17.06154441833496,1048109.504951167,0.1135711669921875,-0.1613922119140625,-1.112594604492188,1048109.483780167,0.0297099594026804,0.02736371383070946,-0.1009202226996422,1048109.464665167,-1.951980590820312,32.3148193359375,-104.2053680419922,1048109.476310167,-1.694600627460269,0.07214061119498977,0.1272322042316547,0.07099179178476334,0.1606353223323822,-0.1208778619766235,-0.001076161861419678,0.01759049296379089,-0.09084802865982056,2,-0.06903266196372496,0.02379146142091831,0.7459755708764206,-0.6619584710784701,0.07149544358253479,-0.1268892139196396,-0.9893369078636169,-13.21443748474121,-2.393463134765625,-33.92142486572266,-1,2,1048107.07465925,1,2,1617673904.663829,1617673410.617,79,1.496211,0,0,51.15003,0,0,1617673906.263914,1048106.595935,0,-0.4624023,98.16087,0,0,0,0,0,1,1617673907.041595,1,0.1,1617673907.113834,-21.75576,-29.11712,0
1617673907.148926,4,0,0,0,0,0,0,0,0,0,1617673907.138531,-12.93731880187988,-2.787281036376953,-34.48009490966797,67.04913330078125,74.07747650146484,17.06203651428223,1048109.538572167,0.0680084228515625,-0.1535491943359375,-0.9891510009765625,1048109.517403167,0.001942243310622871,-0.5364980697631836,0.009512012824416161,1048109.524648167,-1.54949951171875,31.81077575683594,-104.9721069335938,1048109.476310167,-1.694600627460269,0.07214061119498977,0.1272322042316547,0.07099179178476334,0.1606353223323822,-0.1208778619766235,-0.001076161861419678,0.01759049296379089,-0.09084802865982056,2,-0.06903266196372496,0.02379146142091831,0.7459755708764206,-0.6619584710784701,0.07149544358253479,-0.1268892139196396,-0.9893369078636169,-13.21443748474121,-2.393463134765625,-33.92142486572266,-1,2,1048107.07465925,1,2,1617673904.663829,1617673410.617,79,1.496211,0,0,51.15003,0,0,1617673906.263914,1048106.595935,0,-0.4624023,98.16087,0,0,0,0,0,1,1617673907.041595,1,0.1,1617673907.113834,-21.75576,-29.11712,0
1617673907.178384,5,0,0,0,0,0,0,0,0,0,1617673907.158333,-13.17979049682617,-2.844934463500977,-34.290771484375,66.9244384765625,73.95278167724609,17.06228446960449,1048109.572193167,0.00146484375,-0.0974578857421875,-0.8888092041015625,1048109.551024167,0.209636315703392,-0.2044998705387115,0.1125116273760796,1048109.524648167,-1.54949951171875,31.81077575683594,-104.9721069335938,1048109.536082167,-1.696020670575832,0.05372695460837609,0.1276222765676372,0.09934407472610474,-0.4723818600177765,0.1101227551698685,0.02780553326010704,-0.02770739793777466,-0.0177273154258728,2,-0.06226898562087397,0.03007517944680774,0.7470363853048109,-0.6611767554956927,0.05326437577605247,-0.1272761225700378,-0.9904361367225647,-13.03987979888916,-2.799684524536133,-34.43885040283203,-1,2,1048107.07465925,1,2,1617673904.663829,1617673410.617,79,1.496211,0,0,51.15003,0,0,1617673906.263914,1048106.595935,0,-0.4624023,98.16087,0,0,0,0,0,1,1617673907.041595,1,0.1,1617673907.162181,-22.87031,-28.8967,0
1617673907.219066,6,0,0,0,0,0,0,0,0,0,1617673907.217978,-13.54964351654053,-3.04389762878418,-34.27220916748047,67.03739166259766,74.06573486328125,17.06302261352539,1048109.605816167,0.01593017578125,-0.1198883056640625,-0.927490234375,1048109.584647167,0.2601410448551178,0.3141001462936401,-0.05336921662092209,1048109.584635167,-2.094940185546875,31.62257385253906,-104.5569000244141,1048109.595854167,-1.694527882619113,0.05455681562554796,0.1410128084313941,0.1845566928386688,0.3836799561977386,-0.08097837865352631,-0.04861743748188019,0.02468594908714294,0.09065186977386475,2,-0.06701285415791389,0.03476696613039128,0.746059520679901,-0.6615856834712749,0.0539885014295578,-0.1405459493398666,-0.9886010885238647,-13.60088157653809,-2.975069046020508,-34.21358489990234,-1,2,1048107.07465925,1,2,1617673904.663829,1617673410.617,79,1.496211,0,0,51.15003,0,0,1617673906.263914,1048106.595935,0,-0.4624023,98.16087,0,0,0,0,0,1,1617673907.041595,1,0.1,1617673907.218948,-23.40646,-27.70968,0
1617673907.247692,7,0,0,0,0,0,0,0,0,0,1617673907.238289,-13.2912015914917,-3.281816482543945,-34.21890258789062,67.23038482666016,74.25872802734375,17.06326675415039,1048109.639437167,0.06591796875,-0.1490325927734375,-0.9809112548828125,1048109.618268167,0.02482891641557217,0.3189976811408997,-0.1690643876791,1048109.584635167,-2.094940185546875,31.62257385253906,-104.5569000244141,1048109.595854167,-1.694527882619113,0.05455681562554796,0.1410128084313941,0.1845566928386688,0.3836799561977386,-0.08097837865352631,-0.04861743748188019,0.02468594908714294,0.09065186977386475,2,-0.06701285415791389,0.03476696613039128,0.746059520679901,-0.6615856834712749,0.0539885014295578,-0.1405459493398666,-0.9886010885238647,-13.60088157653809,-2.975069046020508,-34.21358489990234,-1,2,1048107.07465925,1,2,1617673904.663829,1617673410.617,79,1.496211,0,0,51.15003,0,0,1617673906.263914,1048106.595935,0,-0.4624023,98.16087,0,0,0,0,0,1,1617673907.041595,1,0.1,1617673907.247254,-23.40646,-28.29262,0
1617673907.282777,8,0,0,0,0,0,0,0,0,0,1617673907.277875,-12.96797752380371,-3.263080596923828,-34.50818634033203,67.49689483642578,74.52523803710938,17.06375885009766,1048109.673058167,0.0781707763671875,-0.163604736328125,-0.9570770263671875,1048109.651889167,-0.2750622034072876,0.08274787664413452,-0.1529527902603149,1048109.644618167,-1.61737060546875,31.24261474609375,-104.7506103515625,1048109.655626167,-1.703735863296893,0.07023010396712663,0.1367138502396913,-0.3030816912651062,0.08652108907699585,-0.1231291815638542,0.02526993304491043,-0.03078010678291321,0.01329731941223145,2,-0.07131299550623799,0.02830039241652017,0.7487123727411242,-0.6584400249709967,0.06951761990785599,-0.1362883746623993,-0.9882270693778992,-13.00590419769287,-3.327278137207031,-34.39112091064453,-1,2,1048107.07465925,1,2,1617673904.663829,1617673410.617,79,1.496211,0,0,51.15003,0,0,1617673906.263914,1048106.595935,0,-0.4624023,98.16087,0,0,0,0,0,1,1617673907.041595,1,0.1,1617673907.282759,-23.40646,-25.87737,0
1617673907.317356,9,0,0,0,0,0,0,0,0,0,1617673907.297953,-12.86108779907227,-3.246358871459961,-34.50957489013672,67.42243194580078,74.45077514648438,17.06400489807129,1048109.706682167,0.0684051513671875,-0.0727081298828125,-1.051437377929688,1048109.685513167,-0.1210049837827682,0.3250630497932434,0.06727171689271927,1048109.704599167,-1.249526977539062,31.55856323242188,-104.8370056152344,1048109.655626167,-1.703735863296893,0.07023010396712663,0.1367138502396913,-0.3030816912651062,0.08652108907699585,-0.1231291815638542,0.02526993304491043,-0.03078010678291321,0.01329731941223145,2,-0.07131299550623799,0.02830039241652017,0.7487123727411242,-0.6584400249709967,0.06951761990785599,-0.1362883746623993,-0.9882270693778992,-13.00590419769287,-3.327278137207031,-34.39112091064453,-1,2,1048107.07465925,1,2,1617673904.663829,1617673410.617,79,1.496211,0,0,51.15003,0,0,1617673906.263914,1048106.595935,0,-0.4624023,98.16087,0,0,0,0,0,1,1617673907.041595,1,0.1,1617673907.313882,-23.40646,-26.14484,0
1617673907.347426,10,0,0,0,0,0,0,0,0,0,1617673907.337654,-12.53289699554443,-3.030012130737305,-34.52195739746094,67.52626800537109,74.55461120605469,17.06449890136719,1048109.740307125,0.07464599609375,-0.0897216796875,-1.03662109375,1048109.719134167,0.0505654402077198,0.02433276921510696,-0.09993751347064972,1048109.704599167,-1.249526977539062,31.55856323242188,-104.8370056152344,1048109.715399167,-1.703085900545146,0.08346588465766591,0.1286588596554615,0.03781517595052719,0.07292523235082626,-0.07799584418535233,-0.008629083633422852,0.06707067787647247,-0.07806283235549927,2,-0.07363719096483516,0.02088962313475034,0.748321105562054,-0.6589055730227815,0.08267994970083237,-0.128304198384285,-0.9882823824882507,-12.68502426147461,-2.987033843994141,-34.48332214355469,-1,2,1048107.07465925,1,2,1617673904.663829,1617673410.617,79,1.496211,0,0,51.15003,0,0,1617673906.263914,1048106.595935,0,-0.4624023,98.16087,0,0,0,0,0,1,1617673907.041595,1,0.1,1617673907.347394,-23.40646,-26.49494,0
1617673907.388892,11,0,0,0,0,0,0,0,0,0,1617673907.377539,-12.5147876739502,-3.150190353393555,-34.62342071533203,67.90938568115234,74.93772888183594,17.06499099731445,1048109.773930125,0.064453125,-0.12689208984375,-0.9904632568359375,1048109.752759125,-0.008209460414946079,-0.1651266366243362,-0.1741683334112167,1048109.764581125,-1.078277587890625,31.409423828125,-105.0652313232422,1048109.715399167,-1.703085900545146,0.08346588465766591,0.1286588596554615,0.03781517595052719,0.07292523235082626,-0.07799584418535233,-0.008629083633422852,0.06707067787647247,-0.07806283235549927,2,-0.07363719096483516,0.02088962313475034,0.748321105562054,-0.6589055730227815,0.08267994970083237,-0.128304198384285,-0.9882823824882507,-12.68502426147461,-2.987033843994141,-34.48332214355469,-1,2,1048107.07465925,1,2,1617673904.663829,1617673410.617,79,1.496211,0,0,51.15003,0,0,1617673906.263914,1048106.595935,0,-0.4624023,98.16087,0,0,0,0,0,1,1617673907.041595,1,0.1,1617673907.347394,-23.40646,-26.49494,0
1617673907.41727,12,0,0,0,0,0,0,0,0,0,1617673907.39737,-12.64472484588623,-3.085763931274414,-34.66345977783203,68.09463500976562,75.12297821044922,17.06523704528809,1048109.807551125,0.0619049072265625,-0.145172119140625,-0.96240234375,1048109.786382125,-0.03038906492292881,-0.05153056979179382,-0.1568314284086227,1048109.764581125,-1.078277587890625,31.409423828125,-105.0652313232422,1048109.775175125,-1.712363870115947,0.07734060648311744,0.1276533067426697,-0.03382488340139389,-0.1348338723182678,-0.1705241352319717,-0.01218177378177643,0.0004148036241531372,-0.001564860343933105,2,-0.0709103499272114,0.02285869797630188,0.751628422481146,-0.6553655573222051,0.07663486152887344,-0.1273068934679031,-0.9888983964920044,-12.58980751037598,-3.058765411376953,-34.72524261474609,-1,2,1048107.07465925,1,2,1617673904.663829,1617673410.617,79,1.496211,0,0,51.15003,0,0,1617673906.263914,1048106.595935,0,-0.4624023,98.16087,0,0,0,0,0,1,1617673907.041595,1,0.1,1617673907.413762,-23.40646,-28.19177,0
1617673907.448583,13,0,0,0,0,0,0,0,0,0,1617673907.437208,-12.8376350402832,-3.075218200683594,-34.59026336669922,68.33791351318359,75.36625671386719,17.06496620178223,1048109.841172125,0.075347900390625,-0.13037109375,-1.01373291015625,1048109.820003125,0.0007864314829930663,0.1546449661254883,-0.09518856555223465,1048109.824563125,-1.406600952148438,31.54568481445312,-105.0551300048828,1048109.775175125,-1.712363870115947,0.07734060648311744,0.1276533067426697,-0.03382488340139389,-0.1348338723182678,-0.1705241352319717,-0.01218177378177643,0.0004148036241531372,-0.001564860343933105,2,-0.0709103499272114,0.02285869797630188,0.751628422481146,-0.6553655573222051,0.07663486152887344,-0.1273068934679031,-0.9888983964920044,-12.58980751037598,-3.058765411376953,-34.72524261474609,-1,2,1048107.07465925,1,2,1617673904.663829,1617673410.617,79,1.496211,0,0,51.15003,0,0,1617673906.263914,1048106.595935,0,-0.4624023,98.16087,0,0,0,0,0,1,1617673907.041595,1,0.1,1617673907.413762,-23.40646,-28.19177,0
1617673907.486937,14,0,0,0,0,0,0,0,0,0,1617673907.477624,-12.68383884429932,-3.21782112121582,-34.67404937744141,68.48917388916016,75.51751708984375,17.06480598449707,1048109.874795125,0.0828857421875,-0.128326416015625,-1.0079345703125,1048109.853626125,0.1686396151781082,0.1229088753461838,-0.04757843911647797,1048109.824563125,-1.406600952148438,31.54568481445312,-105.0551300048828,1048109.834947125,-1.719384226454599,0.08076938574379049,0.1236361687206856,0.06746605038642883,0.119942843914032,-0.07501450181007385,-0.0039244145154953,-0.008895978331565857,-0.02142751216888428,2,-0.07081867036373243,0.02046755931311594,0.7539499734603872,-0.6527826317866432,0.08006573468446732,-0.1233214288949966,-0.9891315698623657,-12.81629753112793,-3.054553985595703,-34.664794921875,-1,2,1048107.07465925,1,2,1617673904.663829,1617673410.617,79,1.496211,0,0,51.15003,0,0,1617673906.263914,1048106.595935,0,-0.4624023,98.16087,0,0,0,0,0,1,1617673907.041595,1,0.1,1617673907.48057,-22.6459,-24.85483,0
1617673907.518463,15,0,0,0,0,0,0,0,0,0,1617673907.517067,-12.45917987823486,-3.433446884155273,-34.87574005126953,68.64382934570312,75.67217254638672,17.06454086303711,1048109.908416125,0.0882415771484375,-0.146392822265625,-1.0218505859375,1048109.887247125,0.1190811172127724,0.04692676290869713,-0.07153676450252533,1048109.884546125,-1.080459594726562,31.27919006347656,-105.1400451660156,1048109.894719125,-1.723399355801563,0.08607851180673583,0.1320599726572889,0.06041503697633743,-0.0005053426139056683,-0.06815941631793976,-0.0006595030426979065,-0.003592699766159058,-0.02798718214035034,2,-0.07550771741707252,0.02207546570627604,0.7547466401273207,-0.6512823638174313,0.08522366732358932,-0.1316764503717422,-0.9876224994659424,-12.49880981445312,-3.408895492553711,-34.7791748046875,-1,2,1048107.07465925,1,2,1617673904.663829,1617673410.617,79,1.496211,0,0,51.15003,0,0,1617673906.263914,1048106.595935,0,-0.4624023,98.16087,0,0,0,0,0,1,1617673907.041595,1,0.1,1617673907.518426,-22.6459,-26.02913,0
1617673907.546738,16,0,0,0,0,0,0,0,0,0,1617673907.537283,-12.44480133056641,-3.522127151489258,-34.76136016845703,68.72299194335938,75.75133514404297,17.06441497802734,1048109.942037125,0.08575439453125,-0.122283935546875,-1.02032470703125,1048109.920868125,-0.06560617685317993,-0.1527711749076843,-0.07820425927639008,1048109.884546125,-1.080459594726562,31.27919006347656,-105.1400451660156,1048109.894719125,-1.723399355801563,0.08607851180673583,0.1320599726572889,0.06041503697633743,-0.0005053426139056683,-0.06815941631793976,-0.0006595030426979065,-0.003592699766159058,-0.02798718214035034,2,-0.07550771741707252,0.02207546570627604,0.7547466401273207,-0.6512823638174313,0.08522366732358932,-0.1316764503717422,-0.9876224994659424,-12.49880981445312,-3.408895492553711,-34.7791748046875,-1,2,1048107.07465925,1,2,1617673904.663829,1617673410.617,79,1.496211,0,0,51.15003,0,0,1617673906.263914,1048106.595935,0,-0.4624023,98.16087,0,0,0,0,0,1,1617673907.041595,1,0.1,1617673907.546681,-22.6459,-26.72452,0
1617673907.586255,17,0,0,0,0,0,0,0,0,0,1617673907.576814,-12.65740966796875,-3.442907333374023,-34.87665557861328,68.97952270507812,76.00786590576172,17.06430816650391,1048109.975660125,0.0646820068359375,-0.1368255615234375,-0.9625091552734375,1048109.954491125,-0.02192633785307407,-0.2033919990062714,-0.1284751445055008,1048109.944535125,-1.09259033203125,31.12818908691406,-105.1925506591797,1048109.954491125,-1.728226445503841,0.07675496854190686,0.1288663170589784,-0.03328108042478561,-0.2086986005306244,-0.1265493184328079,-0.001931905746459961,0.001785695552825928,-0.001903712749481201,2,-0.07089679431071652,0.02407147704057434,0.756778677573464,-0.6493691465355599,0.07604381442070007,-0.1285099387168884,-0.9887884259223938,-12.58443737030029,-3.492380142211914,-34.85269927978516,-1,2,1048107.07465925,1,2,1617673904.663829,1617673410.617,79,1.496211,0,0,51.15003,0,0,1617673906.263914,1048107.544994,0,-0.4359741,98.16055,0,0,0,0,0,1,1617673907.041595,1,0.1,1617673907.580543,-22.6459,-28.20619,0
1617673907.616395,18,0,0,0,0,0,0,0,0,0,1617673907.597278,-12.77624320983887,-3.508281707763672,-34.72341918945312,69.11173248291016,76.14007568359375,17.06426429748535,1048110.009281125,0.0724945068359375,-0.126220703125,-0.991241455078125,1048109.988112125,0.05534421652555466,0.0234890803694725,-0.1105129271745682,1048110.004520125,-1.50799560546875,30.94776916503906,-105.2050323486328,1048109.954491125,-1.728226445503841,0.07675496854190686,0.1288663170589784,-0.03328108042478561,-0.2086986005306244,-0.1265493184328079,-0.001931905746459961,0.001785695552825928,-0.001903712749481201,2,-0.07089679431071652,0.02407147704057434,0.756778677573464,-0.6493691465355599,0.07604381442070007,-0.1285099387168884,-0.9887884259223938,-12.58443737030029,-3.492380142211914,-34.85269927978516,-1,2,1048107.07465925,1,2,1617673904.663829,1617673410.617,79,1.496211,0,0,51.15003,0,0,1617673906.263914,1048107.544994,0,-0.4359741,98.16055,0,0,0,0,0,1,1617673907.041595,1,0.1,1617673907.613948,-22.6459,-27.99489,0
1617673907.656064,19,0,0,0,0,0,0,0,0,0,1617673907.636588,-12.89093685150146,-3.645822525024414,-34.68295288085938,69.34960174560547,76.37794494628906,17.06412124633789,1048110.042905125,0.0804290771484375,-0.1496734619140625,-0.9708099365234375,1048110.021733125,0.1981764733791351,0.04628094658255577,-0.104138121008873,1048110.004520125,-1.50799560546875,30.94776916503906,-105.2050323486328,1048110.014263125,-1.734938334901518,0.07609025215872327,0.1312177487726156,0.1682885140180588,0.02736042998731136,-0.08987690508365631,-0.0005800724029541016,0.006284043192863464,0.002862751483917236,2,-0.07131939589032327,0.02542029002710856,0.7588900724637336,-0.64680236595623,0.07536335289478302,-0.1308415234088898,-0.988534688949585,-12.91862297058105,-3.662857055664062,-34.70944976806641,-1,2,1048107.07465925,1,2,1617673904.663829,1617673410.617,79,1.496211,0,0,51.15003,0,0,1617673906.263914,1048107.544994,0,-0.4359741,98.16055,0,0,0,0,0,1,1617673907.041595,1,0.1,1617673907.647281,-22.6459,-28.52917,0
1617673907.688489,20,0,0,0,0,0,0,0,0,0,1617673907.67652,-12.68900012969971,-4.068853378295898,-34.55155944824219,69.48057556152344,76.50891876220703,17.06387901306152,1048110.076526125,0.087860107421875,-0.149017333984375,-0.9846954345703125,1048110.055357125,0.1877214312553406,0.14042928814888,-0.02049621939659119,1048110.064498125,-1.223602294921875,30.48294067382812,-105.0067291259766,1048110.014263125,-1.734938334901518,0.07609025215872327,0.1312177487726156,0.1682885140180588,0.02736042998731136,-0.08987690508365631,-0.0005800724029541016,0.006284043192863464,0.002862751483917236,2,-0.07131939589032327,0.02542029002710856,0.7588900724637336,-0.64680236595623,0.07536335289478302,-0.1308415234088898,-0.988534688949585,-12.91862297058105,-3.662857055664062,-34.70944976806641,-1,2,1048107.07465925,1,2,1617673904.663829,1617673410.617,79,1.496211,0,0,51.15003,0,0,1617673906.263914,1048107.544994,0,-0.4359741,98.16055,0,0,0,0,0,1,1617673907.041595,1,0.1,1617673907.647281,-22.6459,-28.52917,0
1617673907.715935,21,0,0,0,0,0,0,0,0,0,1617673907.696355,-12.50493812561035,-4.198772430419922,-34.66381072998047,69.50167846679688,76.53002166748047,17.06375503540039,1048110.110147125,0.08221435546875,-0.13531494140625,-0.983856201171875,1048110.088978125,0.02419881336390972,0.06309960782527924,-0.02820473909378052,1048110.064498125,-1.223602294921875,30.48294067382812,-105.0067291259766,1048110.074036125,-1.739013460414109,0.08244898877130169,0.1411236261955231,0.1006455421447754,0.1010617092251778,-0.007871088571846485,0.006079055368900299,-0.01158128678798676,0.003388464450836182,2,-0.07685899207004343,0.02729500757198176,0.7595873474264858,-0.6452711093585083,0.08153687417507172,-0.1406556516885757,-0.9866953492164612,-12.61985015869141,-4.183822631835938,-34.64230346679688,-1,2,1048107.07465925,1,2,1617673904.663829,1617673410.617,79,1.496211,0,0,51.15003,0,0,1617673906.263914,1048107.544994,0,-0.4359741,98.16055,0,0,0,0,0,1,1617673907.041595,1,0.1,1617673907.713807,-22.6459,-30.12372,0
1617673907.758568,22,0,0,0,0,0,0,0,0,0,1617673907.75598,-12.49849891662598,-4.090875625610352,-34.80686950683594,69.61721801757812,76.64556121826172,17.06340026855469,1048110.143770125,0.0863494873046875,-0.152496337890625,-0.984130859375,1048110.122601125,-0.1123102977871895,-0.042901661247015,-0.05716555193066597,1048110.124482125,-0.988922119140625,30.47067260742188,-105.14501953125,1048110.133808125,-1.741148644986463,0.08315427547151347,0.1380669288904932,-0.1090986281633377,-0.06663224101066589,-0.03833190351724625,0.005805611610412598,-0.007909625768661499,-0.003813803195953369,2,-0.07611969442779981,0.02598204836552863,0.7603709378207794,-0.6444896354045176,0.08226808160543442,-0.1376287043094635,-0.9870614409446716,-12.44457530975342,-4.090307235717773,-34.78114318847656,-1,2,1048107.07465925,1,2,1617673904.663829,1617673410.617,79,1.496211,0,0,51.15003,0,0,1617673906.263914,1048107.544994,0,-0.4359741,98.16055,0,0,0,0,0,1,1617673907.041595,1,0.1,1617673907.758522,-22.6459,-27.91696,0
1617673907.785635,23,0,0,0,0,0,0,0,0,0,1617673907.776349,-12.53557014465332,-4.157697677612305,-34.69016265869141,69.58557891845703,76.61392211914062,17.06328392028809,1048110.177391125,0.083526611328125,-0.1464996337890625,-0.9679718017578125,1048110.156222125,-0.01199727412313223,-0.01730974763631821,0.02061499655246735,1048110.124482125,-0.988922119140625,30.47067260742188,-105.14501953125,1048110.133808125,-1.741148644986463,0.08315427547151347,0.1380669288904932,-0.1090986281633377,-0.06663224101066589,-0.03833190351724625,0.005805611610412598,-0.007909625768661499,-0.003813803195953369,2,-0.07611969442779981,0.02598204836552863,0.7603709378207794,-0.6444896354045176,0.08226808160543442,-0.1376287043094635,-0.9870614409446716,-12.44457530975342,-4.090307235717773,-34.78114318847656,-1,2,1048107.07465925,1,2,1617673904.663829,1617673410.617,79,1.496211,0,0,51.15003,0,0,1617673906.263914,1048107.544994,0,-0.4359741,98.16055,0,0,0,0,0,1,1617673907.041595,1,0.1,1617673907.780668,-22.6459,-28.12141,0
1617673907.817651,24,0,0,0,0,0,0,0,0,0,1617673907.815687,-12.56854438781738,-3.983451843261719,-34.79445648193359,69.46992492675781,76.49826812744141,17.06305885314941,1048110.211012125,0.0818939208984375,-0.1330718994140625,-0.9999542236328125,1048110.189843125,0.04396852478384972,0.1189165338873863,0.05463235080242157,1048110.184468125,-1.188980102539062,30.52670288085938,-105.1553802490234,1048110.193580125,-1.73947420563264,0.08409585258787045,0.1378975064008059,0.02706027776002884,0.1226207837462425,0.05507767200469971,-0.005165986716747284,-0.004049137234687805,0.0131450891494751,2,-0.07644486113892199,0.0255499188419391,0.7598018987003347,-0.6451390570641348,0.0831993967294693,-0.1374608874320984,-0.9870067834854126,-12.60116672515869,-4.017473220825195,-34.78290557861328,-1,2,1048107.07465925,1,2,1617673904.663829,1617673410.617,79,1.496211,0,0,51.15003,0,0,1617673906.263914,1048107.544994,0,-0.4359741,98.16055,0,0,0,0,0,1,1617673907.041595,1,0.1,1617673907.817614,-22.6459,-29.01342,0
1617673907.855262,25,0,0,0,0,0,0,0,0,0,1617673907.835792,-12.52673816680908,-4.119281768798828,-34.71078491210938,69.43489837646484,76.46324157714844,17.06295013427734,1048110.244635125,0.0764007568359375,-0.1277008056640625,-1.008880615234375,1048110.223466125,0.01681466586887836,0.0504264235496521,0.0225998517125845,1048110.244449125,-0.988494873046875,30.49026489257812,-105.2684631347656,1048110.193580125,-1.73947420563264,0.08409585258787045,0.1378975064008059,0.02706027776002884,0.1226207837462425,0.05507767200469971,-0.005165986716747284,-0.004049137234687805,0.0131450891494751,2,-0.07644486113892199,0.0255499188419391,0.7598018987003347,-0.6451390570641348,0.0831993967294693,-0.1374608874320984,-0.9870067834854126,-12.60116672515869,-4.017473220825195,-34.78290557861328,-1,2,1048107.07465925,1,2,1617673904.663829,1617673410.617,79,1.496211,0,0,51.15003,0,0,1617673906.263914,1048107.544994,0,-0.4359741,98.16055,0,0,0,0,0,1,1617673907.041595,1,0.1,1617673907.847262,-22.6459,-29.16723,0
1617673907.885253,26,0,0,0,0,0,0,0,0,0,1617673907.875575,-12.45779132843018,-4.044208526611328,-34.99427032470703,69.43719482421875,76.46553802490234,17.06273460388184,1048110.278256125,0.0791168212890625,-0.135162353515625,-1.010452270507812,1048110.257087125,-0.02600470185279846,-0.05449999496340752,-0.01173628494143486,1048110.244449125,-0.988494873046875,30.49026489257812,-105.2684631347656,1048110.253352125,-1.738140335873445,0.08676463995034543,0.1386754111861322,-0.03868754208087921,-0.0463239923119545,-0.0071294573135674,-0.009026475250720978,0.005510434508323669,-0.02557837963104248,2,-0.0777244734904258,0.02493417859055626,0.7592373920112474,-0.6456746351683069,0.08582392334938049,-0.1382313668727875,-0.9866743683815002,-12.44472312927246,-4.039325714111328,-34.91945648193359,-1,2,1048107.07465925,1,2,1617673904.663829,1617673410.617,79,1.496211,0,0,51.15003,0,0,1617673906.263914,1048107.544994,0,-0.4359741,98.16055,0,0,0,0,0,1,1617673907.041595,1,0.1,1617673907.880496,-22.6459,-29.80592,0
1617673907.927923,27,0,0,0,0,0,0,0,0,0,1617673907.9155,-12.5795841217041,-3.84541130065918,-34.76338195800781,69.44931793212891,76.4776611328125,17.06252670288086,1048110.311879125,0.0727996826171875,-0.133636474609375,-0.982940673828125,1048110.290708125,0.003367833560332656,-0.05943882465362549,-0.01127156335860491,1048110.304434125,-1.160110473632812,30.79747009277344,-105.1918487548828,1048110.253352125,-1.738140335873445,0.08676463995034543,0.1386754111861322,-0.03868754208087921,-0.0463239923119545,-0.0071294573135674,-0.009026475250720978,0.005510434508323669,-0.02557837963104248,2,-0.0777244734904258,0.02493417859055626,0.7592373920112474,-0.6456746351683069,0.08582392334938049,-0.1382313668727875,-0.9866743683815002,-12.44472312927246,-4.039325714111328,-34.91945648193359,-1,2,1048107.07465925,1,2,1617673904.663829,1617673410.617,79,1.496211,0,0,51.15003,0,0,1617673906.263914,1048107.544994,0,-0.4359741,98.16055,0,0,0,0,0,1,1617673907.041595,1,0.1,1617673907.913864,-22.6459,-30.32043,0
1617673907.955384,28,0,0,0,0,0,0,0,0,0,1617673907.935306,-12.70545864105225,-3.83003044128418,-34.73900604248047,69.46368408203125,76.49202728271484,17.06242561340332,1048110.345500125,0.0787811279296875,-0.1344451904296875,-0.9774932861328125,1048110.324331125,0.0869641900062561,0.02207467518746853,-0.01274615526199341,1048110.304434125,-1.160110473632812,30.79747009277344,-105.1918487548828,1048110.313124125,-1.738429225873264,0.08290074386356545,0.1376009534731843,0.02885390445590019,0.01123499777168036,-0.007590811233967543,-0.009223490953445435,0.00353066623210907,0.004205405712127686,2,-0.07590929313565843,0.02578254303296207,0.7595220189411551,-0.645522562441323,0.08202313631772995,-0.1371671408414841,-0.9871460795402527,-12.67847156524658,-3.889802932739258,-34.76054382324219,-1,2,1048107.07465925,1,2,1617673904.663829,1617673410.617,79,1.496211,0,0,51.15003,0,0,1617673906.263914,1048107.544994,0,-0.4359741,98.16055,0,0,0,0,0,1,1617673907.041595,1,0.1,1617673907.947451,-22.6459,-30.65158,0
1617673907.988487,29,0,0,0,0,0,0,0,0,0,1617673907.975456,-12.60616493225098,-3.99787712097168,-34.68602752685547,69.54144287109375,76.56978607177734,17.06222915649414,1048110.379121125,0.08123779296875,-0.14459228515625,-0.987884521484375,1048110.357952125,0.08324988186359406,0.06125456839799881,-0.03493960946798325,1048110.364414125,-1.17449951171875,30.59942626953125,-105.1666717529297,1048110.313124125,-1.738429225873264,0.08290074386356545,0.1376009534731843,0.02885390445590019,0.01123499777168036,-0.007590811233967543,-0.009223490953445435,0.00353066623210907,0.004205405712127686,2,-0.07590929313565843,0.02578254303296207,0.7595220189411551,-0.645522562441323,0.08202313631772995,-0.1371671408414841,-0.9871460795402527,-12.67847156524658,-3.889802932739258,-34.76054382324219,-1,2,1048107.07465925,1,2,1617673904.663829,1617673410.617,79,1.496211,0,0,51.15003,0,0,1617673906.263914,1048107.544994,0,-0.4359741,98.16055,0,0,0,0,0,1,1617673907.041595,1,0.1,1617673907.947451,-22.6459,-30.65158,0
1617673908.024902,30,0,0,0,0,0,0,0,0,0,1617673908.015091,-12.51432037353516,-4.056295394897461,-34.69868469238281,69.59877014160156,76.62711334228516,17.06204223632812,1048110.412745125,0.087554931640625,-0.1575164794921875,-0.992279052734375,1048110.391575125,-0.05986306816339493,-0.05231327190995216,-0.03091743588447571,1048110.364414125,-1.17449951171875,30.59942626953125,-105.1666717529297,1048110.372896125,-1.740198632072813,0.08484812888592518,0.1414682744564303,0.004643660970032215,0.002386348322033882,-0.04271908849477768,-0.004111573100090027,0.0004634261131286621,-0.0007493495941162109,2,-0.07786472417779469,0.02669863864625611,0.7598628662284157,-0.6448508323118348,0.08389974385499954,-0.1409968733787537,-0.9864485263824463,-12.56613540649414,-4.072996139526367,-34.84953308105469,-1,2,1048107.07465925,1,2,1617673904.663829,1617673410.617,79,1.496211,0,0,51.15003,0,0,1617673906.263914,1048107.544994,0,-0.4359741,98.16055,0,0,0,0,0,1,1617673907.041595,1,0.1,1617673908.013377,-22.6459,-30.26354,0
1617673908.054583,31,0,0,0,0,0,0,0,0,0,1617673908.035126,-12.45792579650879,-4.283355712890625,-34.05129241943359,69.56980133056641,76.59814453125,17.06195068359375,1048110.446366125,0.0803375244140625,-0.1479949951171875,-0.976104736328125,1048110.425197125,-0.06672150641679764,-0.0799664705991745,0.03305675461888313,1048110.424399125,-1.002960205078125,30.27560424804688,-104.3522491455078,1048110.432669125,-1.740234945932936,0.08018844388863257,0.137151297181277,-0.07020608335733414,-0.05246330052614212,0.04880747199058533,0.0008956044912338257,-0.02268683910369873,0.01423603296279907,2,-0.0747110726405648,0.02655381896488503,0.7602243283357661,-0.644804038923745,0.07935032993555069,-0.1367217153310776,-0.9874262809753418,-12.5227222442627,-4.158405303955078,-34.17028045654297,-1,2,1048107.07465925,1,2,1617673904.663829,1617673410.617,79,1.496211,0,0,51.15003,0,0,1617673906.263914,1048107.544994,0,-0.4359741,98.16055,1617673908.050909,587422867,1685438189,0,0,1,1617673907.041595,1,0.1,1617673908.051158,-22.6459,-30.77962,0
1617673908.084544,32,0,0,0,0,0,0,0,0,0,1617673908.075069,-12.67980670928955,-3.947050094604492,-34.58915710449219,69.45414733886719,76.48249053955078,17.06177520751953,1048110.479987125,0.0730133056640625,-0.1215972900390625,-0.9769287109375,1048110.458818125,-0.02853044494986534,-0.02697009779512882,0.03678624331951141,1048110.424399125,-1.002960205078125,30.27560424804688,-104.3522491455078,1048110.432669125,-1.740234945932936,0.08018844388863257,0.137151297181277,-0.07020608335733414,-0.05246330052614212,0.04880747199058533,0.0008956044912338257,-0.02268683910369873,0.01423603296279907,2,-0.0747110726405648,0.02655381896488503,0.7602243283357661,-0.644804038923745,0.07935032993555069,-0.1367217153310776,-0.9874262809753418,-12.5227222442627,-4.158405303955078,-34.17028045654297,-1,2,1048107.07465925,1,2,1617673904.663829,1617673410.617,79,1.496211,0,0,51.15003,0,0,1617673906.263914,1048107.544994,0,-0.4359741,98.16055,1617673908.050909,587422867,1685438189,0,0,1,1617673907.041595,1,0.1,1617673908.080611,-22.6459,-29.9332,0
1617673908.124341,33,0,0,0,0,0,0,0,0,0,1617673908.115438,-12.77129936218262,-3.704353332519531,-34.80129241943359,69.42290496826172,76.45124816894531,17.06160354614258,1048110.513610125,0.0856170654296875,-0.129486083984375,-1.017349243164062,1048110.492441125,-0.03940413147211075,0.05231966450810432,0.009828129783272743,1048110.484388125,-1.248199462890625,30.80415344238281,-105.1594085693359,1048110.492441125,-1.738211926925786,0.07908312266694689,0.1354022291868061,-0.05076019465923309,0.04701270535588264,0.01175448577851057,-0.004669263958930969,0.002542570233345032,0.01745915412902832,2,-0.07375712493240627,0.02616763707306788,0.7596806081141915,-0.6455700160750583,0.07827763259410858,-0.1349888741970062,-0.9877502918243408,-12.70189094543457,-3.783172607421875,-34.77232360839844,-1,2,1048107.07465925,1,2,1617673904.663829,1617673410.617,79,1.496211,0,0,51.15003,0,0,1617673906.263914,1048107.544994,0,-0.4359741,98.16055,1617673908.050909,587422867,1685438189,0,0,1,1617673907.041595,1,0.1,1617673908.122873,-22.6459,-30.62431,0
1617673908.154167,34,0,0,0,0,0,0,0,0,0,1617673908.135011,-12.79107093811035,-3.721433639526367,-34.57709503173828,69.41001129150391,76.4383544921875,17.06152153015137,1048110.547231125,0.068572998046875,-0.1295928955078125,-0.9882354736328125,1048110.526062125,-0.0271272249519825,-0.07038015872240067,-0.007440872024744749,1048110.544373125,-1.163330078125,30.70562744140625,-104.8209991455078,1048110.492441125,-1.738211926925786,0.07908312266694689,0.1354022291868061,-0.05076019465923309,0.04701270535588264,0.01175448577851057,-0.004669263958930969,0.002542570233345032,0.01745915412902832,2,-0.07375712493240627,0.02616763707306788,0.7596806081141915,-0.6455700160750583,0.07827763259410858,-0.1349888741970062,-0.9877502918243408,-12.70189094543457,-3.783172607421875,-34.77232360839844,-1,2,1048107.07465925,1,2,1617673904.663829,1617673410.617,79,1.496211,0,0,51.15003,0,0,1617673906.263914,1048107.544994,0,-0.4359741,98.16055,1617673908.050909,587422867,1685438189,0,0,1,1617673907.041595,1,0.1,1617673908.146906,-22.6459,-30.90153,0
1617673908.194707,35,0,0,0,0,0,0,0,0,0,1617673908.174602,-12.71710205078125,-3.750783920288086,-34.76969909667969,69.44343566894531,76.47177886962891,17.06135749816895,1048110.580854125,0.0741119384765625,-0.1390533447265625,-1.00592041015625,1048110.559683125,-0.01281060371547937,-0.004938832018524408,-0.01213975343853235,1048110.544373125,-1.163330078125,30.70562744140625,-104.8209991455078,1048110.552213125,-1.738115636931981,0.07780720641924861,0.1333261688893696,-0.02752066776156425,-0.01941634528338909,-0.01921253651380539,-0.008328601717948914,0.0004852265119552612,0.001935839653015137,2,-0.0726077353867256,0.02578382112382406,0.7597756113776366,-0.6456039728359591,0.07703889906406403,-0.1329315155744553,-0.9881266355514526,-12.71581554412842,-3.786754608154297,-34.60762023925781,-1,2,1048107.07465925,1,2,1617673904.663829,1617673410.617,79,1.496211,0,0,51.15003,0,0,1617673906.263914,1048107.544994,0,-0.4359741,98.16055,1617673908.050909,587422867,1685438189,0,0,1,1617673907.041595,1,0.1,1617673908.179691,-22.6459,-30.26476,0
1617673908.227582,36,0,0,0,0,0,0,0,0,0,1617673908.214202,-12.74764633178711,-3.659652709960938,-34.63182830810547,69.44580078125,76.47414398193359,17.06119918823242,1048110.614475125,0.0670928955078125,-0.148406982421875,-0.9790191650390625,1048110.593306125,-0.008696552366018295,-0.05911977961659431,-0.002217614324763417,1048110.604350125,-1.315780639648438,30.9765625,-105.0761413574219,1048110.552213125,-1.738115636931981,0.07780720641924861,0.1333261688893696,-0.02752066776156425,-0.01941634528338909,-0.01921253651380539,-0.008328601717948914,0.0004852265119552612,0.001935839653015137,2,-0.0726077353867256,0.02578382112382406,0.7597756113776366,-0.6456039728359591,0.07703889906406403,-0.1329315155744553,-0.9881266355514526,-12.71581554412842,-3.786754608154297,-34.60762023925781,-1,2,1048107.07465925,1,2,1617673904.663829,1617673410.617,79,1.496211,0,0,51.15003,0,0,1617673906.263914,1048107.544994,0,-0.4359741,98.16055,1617673908.050909,587422867,1685438189,0,0,1,1617673907.041595,1,0.1,1617673908.213879,-22.6459,-26.09527,0
1617673908.254175,37,0,0,0,0,0,0,0,0,0,1617673908.234248,-12.79291725158691,-3.592430114746094,-34.70555114746094,69.41241455078125,76.44075775146484,17.06112480163574,1048110.648096125,0.0711669921875,-0.134521484375,-1.0013427734375,1048110.626927125,-0.06172168627381325,0.0005499427788890898,0.03811009973287582,1048110.604350125,-1.315780639648438,30.9765625,-105.0761413574219,1048110.611985125,-1.738260317840997,0.07531047090951165,0.1316217510576721,-0.04960227385163307,-0.02446534112095833,0.01418377179652452,-0.009067311882972717,-0.0149829238653183,0.009002447128295898,2,-0.07111040457837386,0.0259445726645011,0.7599760607351692,-0.6455281071255295,0.07458850741386414,-0.131242036819458,-0.9885403513908386,-12.75740337371826,-3.68693733215332,-34.68495178222656,-1,2,1048107.07465925,1,2,1617673904.663829,1617673410.617,79,1.496211,0,0,51.15003,0,0,1617673906.263914,1048107.544994,0,-0.4359741,98.16055,1617673908.050909,587422867,1685438189,0,0,1,1617673907.041595,1,0.1,1617673908.247442,-22.6459,-26.52026,0
1617673908.298641,38,0,0,0,0,0,0,0,0,0,1617673908.294144,-12.83962917327881,-3.580656051635742,-34.71776580810547,69.27006530761719,76.29840850830078,17.0609073638916,1048110.681719125,0.06488037109375,-0.1137542724609375,-0.9973907470703125,1048110.660550125,-0.02042325027287006,0.01093706954270601,0.03977644070982933,1048110.664331125,-1.4808349609375,31.08467102050781,-105.0405883789062,1048110.671757125,-1.735545944436921,0.07437384727598757,0.1289050642299991,-0.02025047689676285,0.02040709927678108,0.02526603266596794,-0.008243903517723083,0.01201701164245605,-0.008490025997161865,2,-0.06991681566524782,0.02511534251606829,0.7592324796563872,-0.646565494515372,0.073688805103302,-0.1285483688116074,-0.9889616966247559,-12.86319255828857,-3.560575485229492,-34.64874267578125,-1,2,1048107.07465925,1,2,1617673904.663829,1617673410.617,79,1.496211,0,0,51.15003,0,0,1617673906.263914,1048107.544994,0,-0.4359741,98.16055,1617673908.050909,587422867,1685438189,0,0,1,1617673907.041595,1,0.1,1617673908.298606,-22.6459,-27.23108,0
1617673908.323867,39,0,0,0,0,0,0,0,0,0,1617673908.31414,-12.77340984344482,-3.558124542236328,-34.53050994873047,69.26332855224609,76.29167175292969,17.06083679199219,1048110.715340125,0.07794189453125,-0.12005615234375,-1.031890869140625,1048110.694171125,-0.003590473672375083,0.02535861916840076,0.003506850451231003,1048110.664331125,-1.4808349609375,31.08467102050781,-105.0405883789062,1048110.671757125,-1.735545944436921,0.07437384727598757,0.1289050642299991,-0.02025047689676285,0.02040709927678108,0.02526603266596794,-0.008243903517723083,0.01201701164245605,-0.008490025997161865,2,-0.06991681566524782,0.02511534251606829,0.7592324796563872,-0.646565494515372,0.073688805103302,-0.1285483688116074,-0.9889616966247559,-12.86319255828857,-3.560575485229492,-34.64874267578125,-1,2,1048107.07465925,1,2,1617673904.663829,1617673410.617,79,1.496211,0,0,51.15003,0,0,1617673906.263914,1048107.544994,0,-0.4359741,98.16055,1617673908.050909,587422867,1685438189,0,0,1,1617673907.041595,1,0.1,1617673908.313846,-22.6459,-27.88381,0
1617673908.36025,40,0,0,0,0,0,0,0,0,0,1617673908.353768,-12.9574670791626,-3.331609725952148,-34.64101409912109,69.26444244384766,76.29278564453125,17.06072807312012,1048110.748961625,0.066741943359375,-0.120147705078125,-0.9885101318359375,1048110.727792125,0.04445108771324158,-0.05517004430294037,0.0003118561580777168,1048110.724307125,-1.412918090820312,31.14910888671875,-104.9968414306641,1048110.731529125,-1.735121988742197,0.07298413350064728,0.1298636826450631,0.03492165729403496,-0.04730066657066345,0.003449049778282642,-0.001977622509002686,0.006589427590370178,-0.01319640874862671,2,-0.06970290538334963,0.02591521480736121,0.7591089049419342,-0.6467021220831467,0.0723053440451622,-0.1294989734888077,-0.9889398217201233,-12.86476516723633,-3.448318481445312,-34.60360717773438,-1,2,1048107.07465925,1,2,1617673904.663829,1617673410.617,79,1.496211,0,0,51.15003,0,0,1617673906.263914,1048107.544994,0,-0.4359741,98.16055,1617673908.050909,587422867,1685438189,0,0,1,1617673907.041595,1,0.1,1617673908.360215,-22.6459,-24.84953,0
1617673908.393533,41,0,0,0,0,0,0,0,0,0,1617673908.373865,-12.85870552062988,-3.440042495727539,-34.50861358642578,69.28516387939453,76.31350708007812,17.06067276000977,1048110.782585625,0.0680389404296875,-0.127471923828125,-0.988983154296875,1048110.761415625,0.04621037095785141,-0.008109059184789658,-0.02527499571442604,1048110.784276625,-1.450973510742188,31.14285278320312,-104.990966796875,1048110.731529125,-1.735121988742197,0.07298413350064728,0.1298636826450631,0.03492165729403496,-0.04730066657066345,0.003449049778282642,-0.001977622509002686,0.006589427590370178,-0.01319640874862671,2,-0.06970290538334963,0.02591521480736121,0.7591089049419342,-0.6467021220831467,0.0723053440451622,-0.1294989734888077,-0.9889398217201233,-12.86476516723633,-3.448318481445312,-34.60360717773438,-1,2,1048107.07465925,1,2,1617673904.663829,1617673410.617,79,1.496211,0,0,51.15003,0,0,1617673906.263914,1048107.544994,0,-0.4359741,98.16055,1617673908.050909,587422867,1685438189,0,0,1,1617673907.041595,1,0.1,1617673908.379886,-22.6459,-24.86725,0
1617673908.42323,42,0,0,0,0,0,0,0,0,0,1617673908.413714,-12.89604187011719,-3.492076873779297,-34.66030883789062,69.35765075683594,76.38599395751953,17.06057739257812,1048110.816206625,0.07537841796875,-0.13824462890625,-1.0045166015625,1048110.795037625,0.008310394361615181,0.01597177609801292,-0.02925828658044338,1048110.784276625,-1.450973510742188,31.14285278320312,-104.990966796875,1048110.791302625,-1.736442443714562,0.07213395163749661,0.1306472951279034,0.0003492962568998337,0.01389559730887413,-0.0328260250389576,-0.003601402044296265,-0.003543630242347717,0.005256831645965576,2,-0.06961468000561088,0.02653470842277634,0.7595367024418639,-0.6461839566115087,0.07145719975233078,-0.1302759498357773,-0.9888994097709656,-12.85559558868408,-3.475173950195312,-34.68041229248047,-1,2,1048107.07465925,1,2,1617673904.663829,1617673410.617,79,1.496211,0,0,51.15003,0,0,1617673906.263914,1048107.544994,0,-0.4359741,98.16055,1617673908.050909,587422867,1685438189,0,0,1,1617673907.041595,1,0.1,1617673908.419477,-21.87703,-24.90984,0
1617673908.469839,43,0,0,0,0,0,0,0,0,0,1617673908.453309,-12.92543411254883,-3.502220153808594,-34.43860626220703,69.36281585693359,76.39115905761719,17.06047821044922,1048110.849829625,0.06640625,-0.13311767578125,-0.97601318359375,1048110.828658625,0.006513559259474277,-0.04033463820815086,-0.002902046544477344,1048110.844250625,-1.512664794921875,31.11019897460938,-104.8987274169922,1048110.791302625,-1.736442443714562,0.07213395163749661,0.1306472951279034,0.0003492962568998337,0.01389559730887413,-0.0328260250389576,-0.003601402044296265,-0.003543630242347717,0.005256831645965576,2,-0.06961468000561088,0.02653470842277634,0.7595367024418639,-0.6461839566115087,0.07145719975233078,-0.1302759498357773,-0.9888994097709656,-12.85559558868408,-3.475173950195312,-34.68041229248047,-1,2,1048107.07465925,1,2,1617673904.663829,1617673410.617,79,1.496211,0,0,51.15003,0,0,1617673906.263914,1048107.544994,0,-0.4359741,98.16055,1617673908.050909,587422867,1685438189,0,0,1,1617673907.041595,1,0.1,1617673908.447358,-21.78254,-25.55929,0
1617673908.492934,44,0,0,0,0,0,0,0,0,0,1617673908.473462,-12.94562911987305,-3.410242080688477,-34.64265441894531,69.34560394287109,76.37394714355469,17.0604190826416,1048110.883450625,0.0729217529296875,-0.1243133544921875,-0.9983673095703125,1048110.862281625,-0.005336442030966282,0.020075973123312,0.01266492903232574,1048110.844250625,-1.512664794921875,31.11019897460938,-104.8987274169922,1048110.851074625,-1.736818931307911,0.07076882977202016,0.1295988237257227,-0.01493478659540415,0.01420789677649736,0.01152369659394026,-0.003710567951202393,-0.003881335258483887,0.01311856508255005,2,-0.06875432200458095,0.02658892914119381,0.7597436300732442,-0.6460306742273862,0.07011678814888,-0.1292363405227661,-0.9891317486763,-12.97681903839111,-3.452169418334961,-34.54746246337891,-1,2,1048107.07465925,1,2,1617673904.663829,1617673410.617,79,1.496211,0,0,51.15003,0,0,1617673906.263914,1048107.544994,0,-0.4359741,98.16055,1617673908.050909,587422867,1685438189,0,0,1,1617673907.041595,1,0.1,1617673908.48144,-21.78254,-26.13366,0
1617673908.527233,45,0,0,0,0,0,0,0,0,0,1617673908.513172,-12.9409122467041,-3.407873153686523,-34.35269165039062,69.33346557617188,76.36180877685547,17.06030654907227,1048110.917071625,0.0690460205078125,-0.1243743896484375,-0.975433349609375,1048110.895902625,0.01463699992746115,0.001938248635269701,-0.001715075690299273,1048110.904225625,-1.530715942382812,31.22502136230469,-104.7699127197266,1048110.851074625,-1.736818931307911,0.07076882977202016,0.1295988237257227,-0.01493478659540415,0.01420789677649736,0.01152369659394026,-0.003710567951202393,-0.003881335258483887,0.01311856508255005,2,-0.06875432200458095,0.02658892914119381,0.7597436300732442,-0.6460306742273862,0.07011678814888,-0.1292363405227661,-0.9891317486763,-12.97681903839111,-3.452169418334961,-34.54746246337891,-1,2,1048107.07465925,1,2,1617673904.663829,1617673410.617,79,1.496211,0,0,51.15003,0,0,1617673906.263914,1048107.544994,0,-0.4359741,98.16055,1617673908.050909,587422867,1685438189,0,0,1,1617673907.041595,1,0.1,1617673908.513882,-21.78254,-26.31897,0
1617673908.562892,46,0,0,0,0,0,0,0,0,0,1617673908.552956,-12.94643688201904,-3.398767471313477,-34.47610473632812,69.32991790771484,76.35826110839844,17.0601978302002,1048110.950694625,0.0752410888671875,-0.11968994140625,-1.005096435546875,1048110.929525625,-0.006559365894645452,0.04052159190177917,-0.0001976065541384742,1048110.904225625,-1.530715942382812,31.22502136230469,-104.7699127197266,1048110.910846625,-1.736383325982262,0.07079161150574892,0.1297564345689483,-0.01079441420733929,0.03750158101320267,-0.003589848754927516,-0.002602517604827881,0.004774093627929688,0.01741486787796021,2,-0.06881941690340931,0.02662669795478888,0.7595964137573359,-0.6461951003473916,0.0701378807425499,-0.1293926239013672,-0.9891098141670227,-12.9817590713501,-3.43585205078125,-34.44302368164062,-1,2,1048107.07465925,1,2,1617673904.663829,1617673410.617,79,1.496211,0,0,51.15003,0,0,1617673906.263914,1048108.494025,0,-0.4201355,98.16036,1617673908.050909,587422867,1685438189,0,0,1,1617673907.041595,1,0.1,1617673908.547416,-21.78254,-26.73956,0
1617673908.599708,47,0,0,0,0,0,0,0,0,0,1617673908.592991,-12.90524101257324,-3.32733154296875,-34.54567718505859,69.30561828613281,76.33396148681641,17.06009292602539,1048110.984315625,0.0681304931640625,-0.1214447021484375,-0.987518310546875,1048110.963146625,0.02816292829811573,0.02329040877521038,0.01468307245522738,1048110.964203625,-1.401626586914062,31.26010131835938,-104.8784484863281,1048110.970618625,-1.736038916602079,0.07165211363469773,0.1297829700472661,0.01889156922698021,0.03394781053066254,0.01499257143586874,-0.002919316291809082,0.003961175680160522,0.005860865116119385,2,-0.06915929123784538,0.02634687503248966,0.7594544839611542,-0.6463371339825577,0.0709887370467186,-0.1294189393520355,-0.9890456795692444,-12.86256408691406,-3.316038131713867,-34.51866149902344,-1,2,1048107.07465925,1,2,1617673904.663829,1617673410.617,79,1.496211,0,0,51.15003,0,0,1617673906.263914,1048108.494025,0,-0.4201355,98.16036,1617673908.050909,587422867,1685438189,0,0,1,1617673907.041595,1,0.1,1617673908.589399,-21.78254,-27.6623,0
1617673908.622713,48,0,0,0,0,0,0,0,0,0,1617673908.613424,-12.94307994842529,-3.360862731933594,-34.49362182617188,69.30052947998047,76.32887268066406,17.06004333496094,1048111.017936625,0.073577880859375,-0.12774658203125,-0.99517822265625,1048110.996767625,0.04296637699007988,0.06134591624140739,0.004574245307594538,1048110.964203625,-1.401626586914062,31.26010131835938,-104.8784484863281,1048110.970618625,-1.736038916602079,0.07165211363469773,0.1297829700472661,0.01889156922698021,0.03394781053066254,0.01499257143586874,-0.002919316291809082,0.003961175680160522,0.005860865116119385,2,-0.06915929123784538,0.02634687503248966,0.7594544839611542,-0.6463371339825577,0.0709887370467186,-0.1294189393520355,-0.9890456795692444,-12.86256408691406,-3.316038131713867,-34.51866149902344,-1,2,1048107.07465925,1,2,1617673904.663829,1617673410.617,79,1.496211,0,0,51.15003,0,0,1617673906.263914,1048108.494025,0,-0.4201355,98.16036,1617673908.050909,587422867,1685438189,0,0,1,1617673907.041595,1,0.1,1617673908.613652,-21.78254,-28.05859,0
1617673908.662152,49,0,0,0,0,0,0,0,0,0,1617673908.652918,-12.79017353057861,-3.492391586303711,-34.42945098876953,69.28691101074219,76.31525421142578,17.0599479675293,1048111.051559625,0.0754547119140625,-0.1391448974609375,-0.9811859130859375,1048111.030390625,0.05846836790442467,0.03013739548623562,0.00902598537504673,1048111.024184625,-1.383819580078125,31.15214538574219,-104.8054656982422,1048111.030390625,-1.735745618785314,0.07407910023295151,0.1315955858800321,0.04711335897445679,0.02483072318136692,0.01095191575586796,0.0002369210124015808,-0.001260712742805481,0.003619015216827393,2,-0.07066713994667759,0.02624319010908696,0.7592084361999534,-0.6464673433047798,0.07337144762277603,-0.1312160938978195,-0.9886348843574524,-12.83839511871338,-3.458251953125,-34.38199615478516,-1,2,1048107.07465925,1,2,1617673904.663829,1617673410.617,79,1.496211,0,0,51.15003,0,0,1617673906.263914,1048108.494025,0,-0.4201355,98.16036,1617673908.050909,587422867,1685438189,0,0,1,1617673907.041595,1,0.1,1617673908.658994,-21.78254,-28.87395,0
1617673908.69228,50,0,0,0,0,0,0,0,0,0,1617673908.672868,-12.7525463104248,-3.589122772216797,-34.29916381835938,69.25714874267578,76.28549194335938,17.05990219116211,1048111.085180625,0.0731201171875,-0.134033203125,-0.997650146484375,1048111.064011625,-0.05083415284752846,-0.005088767968118191,0.02098198048770428,1048111.084165625,-1.357864379882812,30.96507263183594,-104.8077087402344,1048111.030390625,-1.735745618785314,0.07407910023295151,0.1315955858800321,0.04711335897445679,0.02483072318136692,0.01095191575586796,0.0002369210124015808,-0.001260712742805481,0.003619015216827393,2,-0.07066713994667759,0.02624319010908696,0.7592084361999534,-0.6464673433047798,0.07337144762277603,-0.1312160938978195,-0.9886348843574524,-12.83839511871338,-3.458251953125,-34.38199615478516,-1,2,1048107.07465925,1,2,1617673904.663829,1617673410.617,79,1.496211,0,0,51.15003,0,0,1617673906.263914,1048108.494025,0,-0.4201355,98.16036,1617673908.050909,587422867,1685438189,0,0,1,1617673907.041595,1,0.1,1617673908.680739,-21.78254,-29.10107,0
1617673908.732148,51,0,0,0,0,0,0,0,0,0,1617673908.712585,-12.77694702148438,-3.595661163330078,-34.4522705078125,69.20265960693359,76.23100280761719,17.059814453125,1048111.118803625,0.0647735595703125,-0.125457763671875,-0.9954833984375,1048111.097632625,-0.09791857004165649,-0.06508952379226685,0.005460012704133987,1048111.084165625,-1.357864379882812,30.96507263183594,-104.8077087402344,1048111.090162625,-1.734333721014793,0.07340801976516831,0.1287193908735967,-0.1103068888187408,-0.07031508535146713,0.0179534200578928,-0.0007291585206985474,-0.004463523626327515,-0.006320357322692871,2,-0.06950583008486726,0.02531467851252343,0.7588808860868159,-0.6470146606976304,0.07273535430431366,-0.128364235162735,-0.9890562295913696,-12.81317138671875,-3.594425201416016,-34.39481353759766,-1,2,1048107.07465925,1,2,1617673904.663829,1617673410.617,79,1.496211,0,0,51.15003,0,0,1617673906.263914,1048108.494025,0,-0.4201355,98.16036,1617673908.050909,587422867,1685438189,0,0,1,1617673907.041595,1,0.1,1617673908.718508,-21.78254,-28.56068,0
1617673908.769207,52,0,0,0,0,0,0,0,0,0,1617673908.752157,-13.03333377838135,-3.250560760498047,-34.32601165771484,69.17972564697266,76.20806884765625,17.05973243713379,1048111.152424625,0.0663909912109375,-0.131317138671875,-1.003128051757812,1048111.131255625,-0.02860687673091888,-0.04598959535360336,0.00512818293645978,1048111.144147625,-1.638717651367188,31.40103149414062,-104.7711944580078,1048111.090162625,-1.734333721014793,0.07340801976516831,0.1287193908735967,-0.1103068888187408,-0.07031508535146713,0.0179534200578928,-0.0007291585206985474,-0.004463523626327515,-0.006320357322692871,2,-0.06950583008486726,0.02531467851252343,0.7588808860868159,-0.6470146606976304,0.07273535430431366,-0.128364235162735,-0.9890562295913696,-12.81317138671875,-3.594425201416016,-34.39481353759766,-1,2,1048107.07465925,1,2,1617673904.663829,1617673410.617,79,1.496211,0,0,51.15003,0,0,1617673906.263914,1048108.494025,0,-0.4201355,98.16036,1617673908.050909,587422867,1685438189,0,0,1,1617673907.041595,1,0.1,1617673908.747358,-21.78254,-29.07318,0
1617673908.791912,53,0,0,0,0,0,0,0,0,0,1617673908.772149,-12.98530769348145,-3.213321685791016,-34.53318023681641,69.16420745849609,76.19255065917969,17.0596923828125,1048111.186046625,0.067596435546875,-0.122314453125,-1.022048950195312,1048111.164876625,0.07529661804437637,0.06575477868318558,0.01990659721195698,1048111.144147625,-1.638717651367188,31.40103149414062,-104.7711944580078,1048111.149934625,-1.733624484139195,0.07073459111906882,0.125459957265267,0.04065359756350517,-0.01163015514612198,0.01509776525199413,-0.002111732959747314,-0.005117937922477722,-0.01847368478775024,2,-0.06745136948961362,0.02491387418687459,0.7588596954541165,-0.6472723935130874,0.07012012600898743,-0.1251310855150223,-0.9896592497825623,-12.99322891235352,-3.257915496826172,-34.45054626464844,-1,2,1048107.07465925,1,2,1617673904.663829,1617673410.617,79,1.496211,0,0,51.15003,0,0,1617673906.263914,1048108.494025,0,-0.4201355,98.16036,1617673908.050909,587422867,1685438189,0,0,1,1617673907.041595,1,0.1,1617673908.782129,-21.78254,-27.68372,0
1617673908.838401,54,0,0,0,0,0,0,0,0,0,1617673908.831888,-12.85949802398682,-3.244621276855469,-34.58476257324219,69.21553802490234,76.24388122558594,17.05962562561035,1048111.219669625,0.0635833740234375,-0.1317901611328125,-1.007492065429688,1048111.198500625,0.03848587349057198,-0.04140230268239975,-0.02910675294697285,1048111.204126625,-1.38677978515625,31.30876159667969,-104.9330749511719,1048111.209707625,-1.733764662042361,0.07140303912780319,0.1282107592372896,0.01255592610687017,-0.07620110362768173,-0.0343933030962944,-0.002183869481086731,0.005896314978599548,-0.0353931188583374,2,-0.06858870530742178,0.02575001366979732,0.7587843565543735,-0.6472084404991059,0.07075682282447815,-0.1278597861528397,-0.9892650246620178,-12.82415390014648,-3.26368522644043,-34.52696228027344,-1,2,1048107.07465925,1,2,1617673904.663829,1617673410.617,79,1.5835,0,0,51.15003,0,0,1617673908.814491,1048108.494025,0,-0.4201355,98.16036,1617673908.050909,587422867,1685438189,0,0,1,1617673907.041595,1,0.1,1617673908.81386,-21.78254,-28.65431,0
1617673908.861892,55,0,0,0,0,0,0,0,0,0,1617673908.851989,-12.82153034210205,-3.302459716796875,-34.41728210449219,69.23621368408203,76.26455688476562,17.05962753295898,1048111.253290625,0.06292724609375,-0.1369171142578125,-0.9778289794921875,1048111.232121625,0.01309875771403313,-0.05825931206345558,-0.02512665838003159,1048111.204126625,-1.38677978515625,31.30876159667969,-104.9330749511719,1048111.209707625,-1.733764662042361,0.07140303912780319,0.1282107592372896,0.01255592610687017,-0.07620110362768173,-0.0343933030962944,-0.002183869481086731,0.005896314978599548,-0.0353931188583374,2,-0.06858870530742178,0.02575001366979732,0.7587843565543735,-0.6472084404991059,0.07075682282447815,-0.1278597861528397,-0.9892650246620178,-12.82415390014648,-3.26368522644043,-34.52696228027344,-1,2,1048107.07465925,1,2,1617673904.663829,1617673410.617,79,1.5835,0,0,51.15003,0,0,1617673908.814491,1048108.494025,0,-0.4201355,98.16036,1617673908.050909,587422867,1685438189,0,0,1,1617673907.041595,1,0.1,1617673908.847408,-21.78254,-28.94414,0
1617673908.902671,56,0,0,0,0,0,0,0,0,0,1617673908.891789,-12.85091781616211,-3.399383544921875,-34.58836364746094,69.22779083251953,76.25613403320312,17.05959892272949,1048111.286911625,0.068695068359375,-0.1183929443359375,-0.9846343994140625,1048111.265742625,0.03285248950123787,0.007126086391508579,0.007066697813570499,1048111.264109625,-1.495513916015625,31.30335998535156,-104.9075012207031,1048111.269479625,-1.734555880291104,0.06886631624166802,0.1285198619684523,0.03148361295461655,-0.001702472800388932,0.007166661787778139,0.0001912415027618408,0.002845928072929382,0.003577351570129395,2,-0.06771517462827412,0.02671540170655859,0.7591157231011276,-0.6468726559178847,0.06824438273906708,-0.1281663477420807,-0.9894018769264221,-12.8884744644165,-3.377925872802734,-34.52597045898438,-1,2,1048107.07465925,1,2,1617673904.663829,1617673410.617,79,1.5835,0,0,51.15003,0,0,1617673908.814491,1048108.494025,0,-0.4201355,98.16036,1617673908.050909,587422867,1685438189,0,0,1,1617673907.041595,1,0.1,1617673908.889422,-21.78254,-25.64605,0
1617673908.931196,57,0,0,0,0,0,0,0,0,0,1617673908.912128,-12.91531753540039,-3.438417434692383,-34.45246887207031,69.24091339111328,76.26925659179688,17.05956840515137,1048111.320534625,0.063873291015625,-0.1246490478515625,-0.975799560546875,1048111.299365625,0.04830601438879967,0.02692003175616264,-0.0175627488642931,1048111.324088625,-1.438629150390625,30.9649658203125,-104.8434600830078,1048111.269479625,-1.734555880291104,0.06886631624166802,0.1285198619684523,0.03148361295461655,-0.001702472800388932,0.007166661787778139,0.0001912415027618408,0.002845928072929382,0.003577351570129395,2,-0.06771517462827412,0.02671540170655859,0.7591157231011276,-0.6468726559178847,0.06824438273906708,-0.1281663477420807,-0.9894018769264221,-12.8884744644165,-3.377925872802734,-34.52597045898438,-1,2,1048107.07465925,1,2,1617673904.663829,1617673410.617,79,1.5835,0,0,51.15003,0,0,1617673908.814491,1048108.494025,0,-0.4201355,98.16036,1617673908.050909,587422867,1685438189,0,0,1,1617673907.041595,1,0.1,1617673908.913682,-21.78254,-26.07206,0
1617673908.961117,58,0,0,0,0,0,0,0,0,0,1617673908.951712,-12.90167331695557,-3.566413879394531,-34.50027465820312,69.27970886230469,76.30805206298828,17.05950355529785,1048111.354155625,0.070556640625,-0.1330718994140625,-0.9936981201171875,1048111.332986625,0.003044259501621127,0.04523325711488724,-0.01388731971383095,1048111.324088625,-1.438629150390625,30.9649658203125,-104.8434600830078,1048111.329251625,-1.735321032124364,0.0697669911658194,0.130251683896459,-0.001844837330281734,0.04170706495642662,-0.01686783879995346,-0.003201983869075775,0.0001839995384216309,0.009243488311767578,2,-0.06860382133546422,0.02711013723728431,0.7592704131453317,-0.6465809538309728,0.06911990791559219,-0.1298836916685104,-0.9891170859336853,-12.89954376220703,-3.629352569580078,-34.47983551025391,-1,2,1048107.07465925,1,2,1617673904.663829,1617673410.617,79,1.5835,0,0,51.15003,0,0,1617673908.814491,1048108.494025,0,-0.4201355,98.16036,1617673908.050909,587422867,1685438189,0,0,1,1617673907.041595,1,0.1,1617673908.958342,-21.78254,-27.29529,0
1617673909.008909,59,0,0,0,0,0,0,0,0,0,1617673908.991328,-12.84821510314941,-3.503208160400391,-34.37696075439453,69.25095367431641,76.279296875,17.05944442749023,1048111.387778625,0.0670318603515625,-0.1197052001953125,-1.000885009765625,1048111.366607625,-0.003426955780014396,0.01373658515512943,0.01350302528589964,1048111.384064625,-1.402023315429688,31.15353393554688,-104.8324737548828,1048111.329251625,-1.735321032124364,0.0697669911658194,0.130251683896459,-0.001844837330281734,0.04170706495642662,-0.01686783879995346,-0.003201983869075775,0.0001839995384216309,0.009243488311767578,2,-0.06860382133546422,0.02711013723728431,0.7592704131453317,-0.6465809538309728,0.06911990791559219,-0.1298836916685104,-0.9891170859336853,-12.89954376220703,-3.629352569580078,-34.47983551025391,-1,2,1048107.07465925,1,2,1617673904.663829,1617673410.617,79,1.5835,0,0,51.15003,0,0,1617673908.814491,1048108.494025,0,-0.4201355,98.16036,1617673908.050909,587422867,1685438189,0,0,1,1617673907.041595,1,0.1,1617673908.980826,-21.78254,-27.53817,0
1617673909.030877,60,0,0,0,0,0,0,0,0,0,1617673909.011337,-12.84487342834473,-3.551504135131836,-34.54746246337891,69.2490234375,76.27736663818359,17.05941772460938,1048111.421399625,0.0635528564453125,-0.1222076416015625,-0.9864044189453125,1048111.400230625,-0.01632038317620754,-0.004144411068409681,-0.006935670506209135,1048111.384064625,-1.402023315429688,31.15353393554688,-104.8324737548828,1048111.389023625,-1.734893840062846,0.07017926534251769,0.1291903044705111,-0.01980334147810936,-0.03242360427975655,0.001850295811891556,-0.002505488693714142,0.009126037359237671,-0.01165950298309326,2,-0.06842470837299078,0.02655773407103388,0.7591563680352408,-0.6467568017730052,0.06953731924295425,-0.1288312375545502,-0.9892255067825317,-12.85822486877441,-3.465354919433594,-34.50798797607422,-1,2,1048107.07465925,1,2,1617673904.663829,1617673410.617,79,1.5835,0,0,51.15003,0,0,1617673908.814491,1048108.494025,0,-0.4201355,98.16036,1617673908.050909,587422867,1685438189,0,0,1,1617673907.041595,1,0.1,1617673909.021703,-21.78254,-28.50516,0
1617673909.068294,61,0,0,0,0,0,0,0,0,0,1617673909.051028,-12.94171524047852,-3.519058227539062,-34.43817138671875,69.26750183105469,76.29584503173828,17.05936431884766,1048111.455020625,0.066131591796875,-0.12664794921875,-0.9929962158203125,1048111.433851625,-0.0003792341449297965,0.02464728988707066,-0.01224521454423666,1048111.444045625,-1.519332885742188,31.11579895019531,-104.8762817382812,1048111.389023625,-1.734893840062846,0.07017926534251769,0.1291903044705111,-0.01980334147810936,-0.03242360427975655,0.001850295811891556,-0.002505488693714142,0.009126037359237671,-0.01165950298309326,2,-0.06842470837299078,0.02655773407103388,0.7591563680352408,-0.6467568017730052,0.06953731924295425,-0.1288312375545502,-0.9892255067825317,-12.85822486877441,-3.465354919433594,-34.50798797607422,-1,2,1048107.07465925,1,2,1617673904.663829,1617673410.617,79,1.5835,0,0,51.15003,0,0,1617673908.814491,1048108.494025,0,-0.4201355,98.16036,1617673908.050909,587422867,1685438189,0,0,1,1617673907.041595,1,0.1,1617673909.046626,-21.78254,-28.66973,0
1617673909.100576,62,0,0,0,0,0,0,0,0,0,1617673909.09153,-12.94916152954102,-3.415109634399414,-34.53337097167969,69.29047393798828,76.31881713867188,17.0593147277832,1048111.488643625,0.06744384765625,-0.1324615478515625,-0.9791259765625,1048111.467474625,0.02071166969835758,0.0002854908525478095,-0.01240234076976776,1048111.444045625,-1.519332885742188,31.11579895019531,-104.8762817382812,1048111.448795625,-1.735250498907503,0.07078006066369198,0.1281334985294018,-0.0004517249763011932,0.01919906958937645,-0.00661104591563344,-0.005352430045604706,0.001577720046043396,-0.002380430698394775,2,-0.06830820242292802,0.02597293625322263,0.7592890640818042,-0.6466370808937753,0.07014121115207672,-0.1277831643819809,-0.9893187880516052,-12.94913005828857,-3.50880241394043,-34.46350860595703,-1,2,1048107.07465925,1,2,1617673904.663829,1617673410.617,79,1.5835,0,0,51.15003,0,0,1617673908.814491,1048108.494025,0,-0.4201355,98.16036,1617673908.050909,587422867,1685438189,0,0,1,1617673907.041595,1,0.1,1617673909.082322,-21.78254,-29.04352,0
1617673909.138204,63,0,0,0,0,0,0,0,0,0,1617673909.130795,-12.99675464630127,-3.261682510375977,-34.49408721923828,69.27248382568359,76.30082702636719,17.05926895141602,1048111.522264625,0.070831298828125,-0.1305999755859375,-1.000442504882812,1048111.501095625,-0.03570233657956123,0.01660986989736557,0.0006170544074848294,1048111.504025625,-1.50555419921875,31.30059814453125,-104.8015594482422,1048111.508567625,-1.735532999933572,0.07109994066206743,0.1269598369958935,-0.04641072824597359,0.001013468950986862,0.009498468600213528,0.000652901828289032,-0.008848488330841064,-0.007182598114013672,2,-0.06804860872868586,0.02543182920256855,0.7594114257712961,-0.6465422048671445,0.07046827673912048,-0.1266190409660339,-0.9894452095031738,-12.96529388427734,-3.33099365234375,-34.46894836425781,-1,2,1048107.07465925,1,2,1617673904.663829,1617673410.617,79,1.5835,0,0,51.15003,0,0,1617673908.814491,1048108.494025,0,-0.4201355,98.16036,1617673908.050909,587422867,1685438189,0,0,1,1617673907.041595,1,0.1,1617673909.113286,-21.78254,-29.55798,0
1617673909.160753,64,0,0,0,0,0,0,0,0,0,1617673909.150718,-12.9642858505249,-3.382129669189453,-34.41236877441406,69.25852966308594,76.28687286376953,17.05924797058105,1048111.555885625,0.070404052734375,-0.1258544921875,-0.9994049072265625,1048111.534716625,-0.01079645473510027,0.0003350256592966616,0.007277886383235455,1048111.504025625,-1.50555419921875,31.30059814453125,-104.8015594482422,1048111.508567625,-1.735532999933572,0.07109994066206743,0.1269598369958935,-0.04641072824597359,0.001013468950986862,0.009498468600213528,0.000652901828289032,-0.008848488330841064,-0.007182598114013672,2,-0.06804860872868586,0.02543182920256855,0.7594114257712961,-0.6465422048671445,0.07046827673912048,-0.1266190409660339,-0.9894452095031738,-12.96529388427734,-3.33099365234375,-34.46894836425781,-1,2,1048107.07465925,1,2,1617673904.663829,1617673410.617,79,1.5835,0,0,51.15003,0,0,1617673908.814491,1048108.494025,0,-0.4201355,98.16036,1617673908.050909,587422867,1685438189,0,0,1,1617673907.041595,1,0.1,1617673909.14732,-21.78254,-30.09162,0
1617673909.201635,65,0,0,0,0,0,0,0,0,0,1617673909.190673,-12.93795204162598,-3.426239013671875,-34.53361511230469,69.25662231445312,76.28496551513672,17.05920791625977,1048111.589509625,0.072021484375,-0.1282501220703125,-1.011306762695312,1048111.568339625,0.008975652046501637,0.01911803521215916,-0.002619751496240497,1048111.563998625,-1.566940307617188,31.32498168945312,-104.8340606689453,1048111.568339625,-1.735025104221609,0.07048818860663171,0.1257284348960532,-0.002385408617556095,0.01380971353501081,-0.0006913685938343406,-0.0004922226071357727,-0.003447771072387695,-0.004757106304168701,2,-0.06742671881835069,0.02514309285504317,0.7593116352458393,-0.6467359473754722,0.06987389922142029,-0.1253974586725235,-0.9896429181098938,-12.98984813690186,-3.367919921875,-34.47167205810547,-1,2,1048107.07465925,1,2,1617673904.663829,1617673410.617,79,1.5835,0,0,51.15003,0,0,1617673908.814491,1048108.494025,0,-0.4201355,98.16036,1617673908.050909,587422867,1685438189,0,0,1,1617673907.041595,1,0.1,1617673909.20157,-21.78254,-31.02078,0
1617673909.230392,66,0,0,0,0,0,0,0,0,0,1617673909.210915,-12.80890464782715,-3.488073348999023,-34.44370269775391,69.25730895996094,76.28565216064453,17.0591869354248,1048111.623130625,0.0708465576171875,-0.1257171630859375,-1.006256103515625,1048111.601961625,0.01422660611569881,-0.006471481174230576,0.001579787116497755,1048111.623974625,-1.358139038085938,31.12303161621094,-104.8495178222656,1048111.568339625,-1.735025104221609,0.07048818860663171,0.1257284348960532,-0.002385408617556095,0.01380971353501081,-0.0006913685938343406,-0.0004922226071357727,-0.003447771072387695,-0.004757106304168701,2,-0.06742671881835069,0.02514309285504317,0.7593116352458393,-0.6467359473754722,0.06987389922142029,-0.1253974586725235,-0.9896429181098938,-12.98984813690186,-3.367919921875,-34.47167205810547,-1,2,1048107.07465925,1,2,1617673904.663829,1617673410.617,79,1.5835,0,0,51.15003,0,0,1617673908.814491,1048108.494025,0,-0.4201355,98.16036,1617673908.050909,587422867,1685438189,0,0,1,1617673907.041595,1,0.1,1617673909.213779,-21.78254,-29.94808,0
1617673909.269951,67,0,0,0,0,0,0,0,0,0,1617673909.250379,-12.88790798187256,-3.412435531616211,-34.56647491455078,69.26370239257812,76.29204559326172,17.05915069580078,1048111.656753625,0.0674896240234375,-0.1272125244140625,-0.9913787841796875,1048111.635582625,0.01661253161728382,-0.02907319739460945,-0.01299622561782598,1048111.623974625,-1.358139038085938,31.12303161621094,-104.8495178222656,1048111.628112625,-1.734996641860664,0.06996638749623903,0.1260464347291012,0.007780085317790508,-0.03013042733073235,-0.001118755899369717,0.001430787146091461,0.001826822757720947,-0.01490771770477295,2,-0.06733127122606419,0.02543205558582606,0.7593087797213367,-0.6467378920716201,0.06935470551252365,-0.1257129311561584,-0.9896394014358521,-12.82939338684082,-3.502296447753906,-34.45365905761719,-1,2,1048107.07465925,1,2,1617673904.663829,1617673410.617,79,1.5835,0,0,51.15003,0,0,1617673908.814491,1048108.494025,0,-0.4201355,98.16036,1617673908.050909,587422867,1685438189,0,0,1,1617673907.041595,1,0.1,1617673909.260926,-21.78254,-30.29378,0
1617673909.308374,68,0,0,0,0,0,0,0,0,0,1617673909.29014,-12.92140865325928,-3.502201080322266,-34.32394409179688,69.29108428955078,76.31942749023438,17.05913734436035,1048111.690374625,0.0646820068359375,-0.1352691650390625,-0.9937744140625,1048111.669205625,0.007334878202527761,-0.02894642949104309,-0.01119885873049498,1048111.683950625,-1.501617431640625,31.13662719726562,-104.7708282470703,1048111.628112625,-1.734996641860664,0.06996638749623903,0.1260464347291012,0.007780085317790508,-0.03013042733073235,-0.001118755899369717,0.001430787146091461,0.001826822757720947,-0.01490771770477295,2,-0.06733127122606419,0.02543205558582606,0.7593087797213367,-0.6467378920716201,0.06935470551252365,-0.1257129311561584,-0.9896394014358521,-12.82939338684082,-3.502296447753906,-34.45365905761719,-1,2,1048107.07465925,1,2,1617673904.663829,1617673410.617,79,1.5835,0,0,51.15003,0,0,1617673908.814491,1048108.494025,0,-0.4201355,98.16036,1617673908.050909,587422867,1685438189,0,0,1,1617673907.041595,1,0.1,1617673909.280661,-21.78254,-26.70428,0
1617673909.329599,69,0,0,0,0,0,0,0,0,0,1617673909.31011,-13.02801704406738,-3.332263946533203,-34.41057586669922,69.28249359130859,76.31083679199219,17.05912399291992,1048111.723995625,0.0599212646484375,-0.126922607421875,-0.9779052734375,1048111.702826625,-0.006518619135022163,-0.01672598347067833,0.00686243362724781,1048111.683950625,-1.501617431640625,31.13662719726562,-104.7708282470703,1048111.687884625,-1.735602759300602,0.06789499090691271,0.1260969245707002,-0.01386258844286203,-0.03972452506422997,0.004413110669702291,-0.001187890768051147,-0.009597688913345337,-0.004945814609527588,2,-0.0665531459634565,0.02614128026243414,0.7595722954975418,-0.6464806313964691,0.06730418652296066,-0.1257630288600922,-0.9897746443748474,-13.00629234313965,-3.348134994506836,-34.34159851074219,-1,2,1048107.07465925,1,2,1617673904.663829,1617673410.617,79,1.5835,0,0,51.15003,0,0,1617673908.814491,1048108.494025,0,-0.4201355,98.16036,1617673908.050909,587422867,1685438189,0,0,1,1617673907.041595,1,0.1,1617673909.325996,-21.78254,-27.55478,0
1617673909.379054,70,0,0,0,0,0,0,0,0,0,1617673909.369859,-13.02634143829346,-3.361591339111328,-34.47649383544922,69.27626037597656,76.30460357666016,17.05908393859863,1048111.757617542,0.069000244140625,-0.11383056640625,-1.006362915039062,1048111.736448542,-0.006835269276052713,0.03374118730425835,-0.002634398872032762,1048111.743921542,-1.628265380859375,31.32060241699219,-104.8887176513672,1048111.747655542,-1.735157595115287,0.068156400497923,0.1250627618774688,0.004591497592628002,-0.005789493210613728,-0.01038229558616877,0.002481326460838318,0.01340887695550919,-0.01807886362075806,2,-0.06632553544409203,0.02564782461479296,0.7594557807719061,-0.6466606520236997,0.06757174432277679,-0.1247370019555092,-0.9898862242698669,-13.06273078918457,-3.318584442138672,-34.43431854248047,-1,2,1048107.07465925,1,2,1617673904.663829,1617673410.617,79,1.5835,0,0,51.15003,0,0,1617673908.814491,1048108.494025,0,-0.4201355,98.16036,1617673908.050909,587422867,1685438189,0,0,1,1617673907.041595,1,0.1,1617673909.347516,-21.78254,-27.94193,0
1617673909.399761,71,0,0,0,0,0,0,0,0,0,1617673909.390355,-12.99870014190674,-3.385858535766602,-34.40247344970703,69.28263854980469,76.31098175048828,17.05907440185547,1048111.791238542,0.0720672607421875,-0.1297454833984375,-0.9956817626953125,1048111.770069542,0.03988403454422951,-0.001925465418025851,-0.008644620887935162,1048111.743921542,-1.628265380859375,31.32060241699219,-104.8887176513672,1048111.747655542,-1.735157595115287,0.068156400497923,0.1250627618774688,0.004591497592628002,-0.005789493210613728,-0.01038229558616877,0.002481326460838318,0.01340887695550919,-0.01807886362075806,2,-0.06632553544409203,0.02564782461479296,0.7594557807719061,-0.6466606520236997,0.06757174432277679,-0.1247370019555092,-0.9898862242698669,-13.06273078918457,-3.318584442138672,-34.43431854248047,-1,2,1048107.07465925,1,2,1617673904.663829,1617673410.617,79,1.5835,0,0,51.15003,0,0,1617673908.814491,1048108.494025,0,-0.4201355,98.16036,1617673908.050909,587422867,1685438189,0,0,1,1617673907.041595,1,0.1,1617673909.380665,-22.33982,-28.62735,0
1617673909.437416,72,0,0,0,0,0,0,0,0,0,1617673909.429581,-13.00330352783203,-3.321262359619141,-34.34619903564453,69.23911285400391,76.2674560546875,17.05905151367188,1048111.824859542,0.071319580078125,-0.1219329833984375,-0.9987335205078125,1048111.803690542,0.01860164664685726,-0.004407531581819057,0.01975905708968639,1048111.803891542,-1.592361450195312,31.21531677246094,-104.7463226318359,1048111.807427542,-1.735077881138192,0.0671891179539032,0.1267317654878884,0.001360302790999413,-0.00948692299425602,0.02113605663180351,0.002995163202285767,-0.0009265393018722534,-0.002399682998657227,2,-0.06649621889448531,0.02659397648780958,0.7594038820796881,-0.6466658008037864,0.06660014390945435,-0.1263927966356277,-0.9897420406341553,-13.016188621521,-3.331838607788086,-34.40298461914062,-1,2,1048107.07465925,1,2,1617673904.663829,1617673410.617,79,1.5835,0,0,51.15003,0,0,1617673908.814491,1048108.494025,0,-0.4201355,98.16036,1617673908.050909,587422867,1685438189,0,0,1,1617673907.041595,1,0.1,1617673909.413863,-22.8971,-29.155,0
1617673909.469189,73,0,0,0,0,0,0,0,0,0,1617673909.449599,-13.02243995666504,-3.298105239868164,-34.29564666748047,69.21009826660156,76.23844146728516,17.05904197692871,1048111.858482542,0.0688629150390625,-0.1251373291015625,-0.9812164306640625,1048111.837313542,0.01418053358793259,-0.01596165634691715,0.0243479497730732,1048111.863871542,-1.6136474609375,31.39442443847656,-104.6842346191406,1048111.807427542,-1.735077881138192,0.0671891179539032,0.1267317654878884,0.001360302790999413,-0.00948692299425602,0.02113605663180351,0.002995163202285767,-0.0009265393018722534,-0.002399682998657227,2,-0.06649621889448531,0.02659397648780958,0.7594038820796881,-0.6466658008037864,0.06660014390945435,-0.1263927966356277,-0.9897420406341553,-13.016188621521,-3.331838607788086,-34.40298461914062,-1,2,1048107.07465925,1,2,1617673904.663829,1617673410.617,79,1.5835,0,0,51.15003,0,0,1617673908.814491,1048108.494025,0,-0.4201355,98.16036,1617673908.050909,587422867,1685438189,0,0,1,1617673907.041595,1,0.1,1617673909.447467,-24.01166,-29.80801,0
1617673909.502693,74,0,0,0,0,0,0,0,0,0,1617673909.48937,-13.04419231414795,-3.25691032409668,-34.4375,69.14752197265625,76.17586517333984,17.05902481079102,1048111.892103542,0.07037353515625,-0.1206207275390625,-1.001296997070312,1048111.870934542,0.01423246506601572,0.01299995463341475,0.02517938986420631,1048111.863871542,-1.6136474609375,31.39442443847656,-104.6842346191406,1048111.867199542,-1.733491896208574,0.06658400591188242,0.1264639734214259,-0.001289264298975468,0.0149937029927969,0.02948379144072533,0.003835968673229218,0.0006083548069000244,0.004388034343719482,2,-0.06620143900382212,0.02663508560383226,0.7589202702415092,-0.6472618936860495,0.06600347906351089,-0.126127153635025,-0.989815890789032,-13.07041168212891,-3.249486923217773,-34.38648986816406,-1,2,1048111.856418542,2,0,1617673909.445588,1617673410.617,79,1.5835,0,0,51.15003,0,0,1617673908.814491,1048109.442942,0,-0.3963318,98.16008,1617673908.050909,587422867,1685438189,0,0,1,1617673907.041595,1,0.1,1617673909.490123,-22.87384,-28.65869,0
1617673909.538993,75,0,0,0,0,0,0,0,0,0,1617673909.529175,-13.04519271850586,-3.444377899169922,-34.33175659179688,69.12057495117188,76.14891815185547,17.05901145935059,1048111.925726542,0.066131591796875,-0.1309661865234375,-0.98101806640625,1048111.904555542,0.03220320865511894,-0.007326622493565083,0.009062737226486206,1048111.923848542,-1.6058349609375,31.14927673339844,-104.753662109375,1048111.867199542,-1.733491896208574,0.06658400591188242,0.1264639734214259,-0.001289264298975468,0.0149937029927969,0.02948379144072533,0.003835968673229218,0.0006083548069000244,0.004388034343719482,2,-0.06620143900382212,0.02663508560383226,0.7589202702415092,-0.6472618936860495,0.06600347906351089,-0.126127153635025,-0.989815890789032,-13.07041168212891,-3.249486923217773,-34.38648986816406,-1,2,1048111.856418542,2,0,1617673909.445588,1617673410.617,79,1.5835,0,0,51.15003,0,0,1617673908.814491,1048109.442942,0,-0.3963318,98.16008,1617673908.050909,587422867,1685438189,0,0,1,1617673907.041595,1,0.1,1617673909.513693,-22.87384,-29.08574,0
1617673909.569089,76,0,0,0,0,0,0,0,0,0,1617673909.54921,-12.99945831298828,-3.439058303833008,-34.46459197998047,69.09954071044922,76.12788391113281,17.05900764465332,1048111.959347542,0.0711517333984375,-0.1250457763671875,-0.996124267578125,1048111.938178542,-0.006870422977954149,0.03971385583281517,0.02035959996283054,1048111.923848542,-1.6058349609375,31.14927673339844,-104.753662109375,1048111.926971542,-1.73259349734762,0.06631874758821101,0.1271530049927636,0.003451640717685223,0.01823632791638374,0.01584462262690067,0.0003964155912399292,-0.004155546426773071,0.008728325366973877,2,-0.06633478171577235,0.02695352639168049,0.7586142213262089,-0.6475938430209747,0.06573513895273209,-0.1268106549978256,-0.9897463917732239,-13.07478332519531,-3.463554382324219,-34.37130737304688,-1,2,1048111.856418542,2,0,1617673909.445588,1617673410.617,79,1.5835,0,0,51.15003,0,0,1617673908.814491,1048109.442942,0,-0.3963318,98.16008,1617673908.050909,587422867,1685438189,0,0,1,1617673907.041595,1,0.1,1617673909.557934,-19.28022,-28.04578,0
1617673909.59901,77,0,0,0,0,0,0,0,0,0,1617673909.589078,-12.92361927032471,-3.526556015014648,-34.19792938232422,69.03932952880859,76.06767272949219,17.05900192260742,1048111.992968542,0.072357177734375,-0.1134796142578125,-1.001922607421875,1048111.971799542,-0.04971988499164581,0.00464535178616643,0.01867355220019817,1048111.983826542,-1.605514526367188,31.24441528320312,-104.7120666503906,1048111.926971542,-1.73259349734762,0.06631874758821101,0.1271530049927636,0.003451640717685223,0.01823632791638374,0.01584462262690067,0.0003964155912399292,-0.004155546426773071,0.008728325366973877,2,-0.06633478171577235,0.02695352639168049,0.7586142213262089,-0.6475938430209747,0.06573513895273209,-0.1268106549978256,-0.9897463917732239,-13.07478332519531,-3.463554382324219,-34.37130737304688,-1,2,1048111.856418542,2,0,1617673909.445588,1617673410.617,79,1.5835,0,0,51.15003,0,0,1617673908.814491,1048109.442942,0,-0.3963318,98.16008,1617673908.050909,587422867,1685438189,0,0,1,1617673907.041595,1,0.1,1617673909.580665,-19.28022,-28.50083,0
1617673909.638826,78,0,0,0,0,0,0,0,0,0,1617673909.629272,-13.03870487213135,-3.251174926757812,-34.51615142822266,69.04311370849609,76.07145690917969,17.05900001525879,1048112.026591542,0.0684967041015625,-0.1368560791015625,-0.9802093505859375,1048112.005422542,-0.008750348351895809,-0.01352779287844896,-0.01395522989332676,1048111.983826542,-1.605514526367188,31.24441528320312,-104.7120666503906,1048111.986743542,-1.73116421717146,0.06719804526359512,0.124517648688855,-0.04449871182441711,-0.02865505591034889,0.005263787228614092,0.007026530802249908,0.0101519376039505,-0.01689398288726807,2,-0.0658375177422055,0.02561853349788792,0.7582136686098015,-0.6481675604251391,0.06662760674953461,-0.1241961345076561,-0.9900182485580444,-13.00866889953613,-3.410737991333008,-34.25132751464844,-1,2,1048111.856418542,2,0,1617673909.445588,1617673410.617,79,1.5835,0,0,51.15003,0,0,1617673908.814491,1048109.442942,0,-0.3963318,98.16008,1617673908.050909,587422867,1685438189,0,0,1,1617673907.041595,1,0.1,1617673909.621926,-19.28022,-28.98875,0
1617673909.678792,79,0,0,0,0,0,0,0,0,0,1617673909.668891,-13.1083288192749,-3.286346435546875,-34.37469482421875,68.94063568115234,75.96897888183594,17.05900001525879,1048112.060212542,0.0684356689453125,-0.13916015625,-0.9975738525390625,1048112.039043542,0.004652009811252356,0.01209447998553514,0.04118019342422485,1048112.043807542,-1.60614013671875,31.25086975097656,-104.7173919677734,1048112.046515542,-1.730523134225826,0.06705808521935387,0.1237819526344477,0.004553115926682949,-0.00445225927978754,0.05901467427611351,0.00894426554441452,-0.02315560728311539,-0.01345211267471313,2,-0.06555533137879396,0.0253629811689033,0.7580358049537801,-0.6484140951039233,0.0664951503276825,-0.1234660968184471,-0.9901184439659119,-13.03882503509521,-3.326635360717773,-34.31387329101562,-1,2,1048111.856418542,2,0,1617673909.445588,1617673410.617,79,1.5835,0,0,51.15003,0,0,1617673908.814491,1048109.442942,0,-0.3963318,98.16008,1617673908.050909,587422867,1685438189,0,0,1,1617673907.041595,1,0.1,1617673909.647188,-19.28022,-29.73195,0
1617673909.698873,80,0,0,0,0,0,0,0,0,0,1617673909.689274,-13.04226112365723,-3.235218048095703,-34.39933776855469,68.86843109130859,75.89677429199219,17.05900192260742,1048112.093833542,0.0593719482421875,-0.1212921142578125,-0.991363525390625,1048112.072664542,0.006372678093612194,0.02188985235989094,0.05996852740645409,1048112.043807542,-1.60614013671875,31.25086975097656,-104.7173919677734,1048112.046515542,-1.730523134225826,0.06705808521935387,0.1237819526344477,0.004553115926682949,-0.00445225927978754,0.05901467427611351,0.00894426554441452,-0.02315560728311539,-0.01345211267471313,2,-0.06555533137879396,0.0253629811689033,0.7580358049537801,-0.6484140951039233,0.0664951503276825,-0.1234660968184471,-0.9901184439659119,-13.03882503509521,-3.326635360717773,-34.31387329101562,-1,2,1048111.856418542,2,0,1617673909.445588,1617673410.617,79,1.5835,0,0,51.15003,0,0,1617673908.814491,1048109.442942,0,-0.3963318,98.16008,1617673908.050909,587422867,1685438189,0,0,1,1617673907.041595,1,0.1,1617673909.680551,-19.28022,-30.82171,0
1617673909.738374,81,0,0,0,0,0,0,0,0,0,1617673909.728786,-13.03181266784668,-3.208118438720703,-34.38189697265625,68.77250671386719,75.80084991455078,17.05900764465332,1048112.127457542,0.0610809326171875,-0.1232147216796875,-1.004531860351562,1048112.106288542,-0.02744787000119686,-0.008837433531880379,0.03283917158842087,1048112.103783542,-1.635101318359375,31.39146423339844,-104.7837371826172,1048112.106288542,-1.72709244731246,0.06765677090073885,0.1229876203015866,-0.03880709409713745,-0.014145253226161,0.03476680815219879,-0.004121534526348114,0.001797683537006378,-0.01890295743942261,2,-0.06556852526483997,0.02475430137655389,0.7569300902222307,-0.6497267732642354,0.06709451228380203,-0.1226778030395508,-0.9901759624481201,-13.05318832397461,-3.222299575805664,-34.29933166503906,-1,2,1048111.856418542,2,0,1617673909.445588,1617673410.617,79,1.5835,0,0,51.15003,0,0,1617673908.814491,1048109.442942,0,-0.3963318,98.16008,1617673908.050909,587422867,1685438189,0,0,1,1617673907.041595,1,0.1,1617673909.713893,-19.28022,-31.33253,0
1617673909.768494,82,0,0,0,0,0,0,0,0,0,1617673909.748641,-13.07992935180664,-3.253829956054688,-34.41200256347656,68.73178100585938,75.76012420654297,17.05901145935059,1048112.161078542,0.0596923828125,-0.11932373046875,-0.99627685546875,1048112.139909542,-0.01627670787274837,-0.01923361606895924,0.03345116600394249,1048112.103783542,-1.635101318359375,31.39146423339844,-104.7837371826172,1048112.106288542,-1.72709244731246,0.06765677090073885,0.1229876203015866,-0.03880709409713745,-0.014145253226161,0.03476680815219879,-0.004121534526348114,0.001797683537006378,-0.01890295743942261,2,-0.06556852526483997,0.02475430137655389,0.7569300902222307,-0.6497267732642354,0.06709451228380203,-0.1226778030395508,-0.9901759624481201,-13.05318832397461,-3.222299575805664,-34.29933166503906,-1,2,1048111.856418542,2,0,1617673909.445588,1617673410.617,79,1.5835,0,0,51.15003,0,0,1617673908.814491,1048109.442942,0,-0.3963318,98.16008,1617673908.050909,587422867,1685438189,0,0,1,1617673907.041595,1,0.1,1617673909.747443,-19.28022,-31.9103,0
1617673909.807825,83,0,0,0,0,0,0,0,0,0,1617673909.788608,-13.13780879974365,-3.037723541259766,-34.37822723388672,68.65393829345703,75.68228149414062,17.05901908874512,1048112.194701542,0.0602264404296875,-0.109619140625,-1.012405395507812,1048112.173530542,-0.007288272958248854,-0.02381798066198826,0.02821059897542,1048112.163766542,-1.682479858398438,31.42939758300781,-104.7697601318359,1048112.166060542,-1.724966652343629,0.06594637584504047,0.1221113979705471,-0.03402779251337051,-0.008167112246155739,0.03415406495332718,-0.005395099520683289,0.002316571772098541,-0.008261024951934814,2,-0.06466438680493174,0.02490841620591452,0.7563246369057628,-0.6505161457723222,0.0654078871011734,-0.1218081563711166,-0.9903962016105652,-13.10393619537354,-3.199609756469727,-34.30883026123047,-1,2,1048111.856418542,2,0,1617673909.445588,1617673410.617,79,1.5835,0,0,51.15003,0,0,1617673908.814491,1048109.442942,0,-0.3963318,98.16008,1617673908.050909,587422867,1685438189,0,0,1,1617673907.041595,1,0.1,1617673909.789161,-19.28022,-32.1955,0
1617673909.8383,84,0,0,0,0,0,0,0,0,0,1617673909.828352,-13.12600708007812,-3.023227691650391,-34.32694244384766,68.63391876220703,75.66226196289062,17.05904388427734,1048112.228322542,0.0560760498046875,-0.121826171875,-0.9802398681640625,1048112.207153542,0.03879213705658913,-0.03058427385985851,0.001727059949189425,1048112.223749542,-1.772735595703125,31.62882995605469,-104.7421112060547,1048112.166060542,-1.724966652343629,0.06594637584504047,0.1221113979705471,-0.03402779251337051,-0.008167112246155739,0.03415406495332718,-0.005395099520683289,0.002316571772098541,-0.008261024951934814,2,-0.06466438680493174,0.02490841620591452,0.7563246369057628,-0.6505161457723222,0.0654078871011734,-0.1218081563711166,-0.9903962016105652,-13.10393619537354,-3.199609756469727,-34.30883026123047,-1,2,1048111.856418542,2,0,1617673909.445588,1617673410.617,79,1.5835,0,0,51.15003,0,0,1617673908.814491,1048109.442942,0,-0.3963318,98.16008,1617673908.050909,587422867,1685438189,0,0,1,1617673907.041595,1,0.1,1617673909.813814,-19.28022,-30.82039,0
1617673909.867617,85,0,0,0,0,0,0,0,0,0,1617673909.84804,-13.22263622283936,-3.009250640869141,-34.31638336181641,68.63242340087891,75.6607666015625,17.05904769897461,1048112.261943542,0.05975341796875,-0.1241912841796875,-0.9873504638671875,1048112.240774542,0.03415291011333466,0.01617896929383278,-0.003596598980948329,1048112.223749542,-1.772735595703125,31.62882995605469,-104.7421112060547,1048112.225832542,-1.724132052188688,0.06351697046319138,0.1227629138627621,0.01992680504918098,0.01504970155656338,0.004227861296385527,-0.007408834993839264,0.0009643137454986572,0.01214021444320679,2,-0.06396739492224188,0.02591912492127165,0.7561092557384369,-0.6507957000063513,0.06299656629562378,-0.1224547922611237,-0.9904727339744568,-13.18589782714844,-2.99247932434082,-34.30953979492188,-1,2,1048111.856418542,2,0,1617673909.445588,1617673410.617,79,1.5835,0,0,51.15003,0,0,1617673908.814491,1048109.442942,0,-0.3963318,98.16008,1617673908.050909,587422867,1685438189,0,0,1,1617673907.041595,1,0.1,1617673909.854921,-19.28022,-30.67485,0
1617673909.913989,86,0,0,0,0,0,0,0,0,0,1617673909.907748,-13.10384178161621,-3.119678497314453,-33.88862609863281,68.63655853271484,75.66490173339844,17.0590705871582,1048112.295566542,0.0663604736328125,-0.13385009765625,-0.9932861328125,1048112.274397542,0.01822933740913868,0.02925003133714199,-0.007027016952633858,1048112.283724542,-1.694244384765625,31.47795104980469,-104.0534820556641,1048112.285604542,-1.724375501620081,0.06417485978209382,0.1231139168730927,-0.01776677742600441,0.0372287705540657,0.004874210339039564,-0.002808660268783569,-0.01068075001239777,0.01191830635070801,2,-0.06432665125239198,0.02584601166692952,0.7561555613600959,-0.650709565250404,0.06364541500806808,-0.1228031441569328,-0.9903881549835205,-13.12588977813721,-3.155799865722656,-33.66398620605469,-1,2,1048111.856418542,2,0,1617673909.445588,1617673410.617,79,1.5835,0,0,51.15003,0,0,1617673908.814491,1048109.442942,0,-0.3963318,98.16008,1617673908.050909,587422867,1685438189,0,0,1,1617673907.041595,1,0.1,1617673909.880629,-19.28022,-31.33901,0
1617673909.937645,87,0,0,0,0,0,0,0,0,0,1617673909.928505,-13.16818046569824,-2.935983657836914,-34.32859802246094,68.61868286132812,75.64702606201172,17.05908012390137,1048112.329187542,0.06488037109375,-0.1183013916015625,-1.001205444335938,1048112.308018542,-0.02392237633466721,-0.02677462249994278,0.0115392105653882,1048112.283724542,-1.694244384765625,31.47795104980469,-104.0534820556641,1048112.285604542,-1.724375501620081,0.06417485978209382,0.1231139168730927,-0.01776677742600441,0.0372287705540657,0.004874210339039564,-0.002808660268783569,-0.01068075001239777,0.01191830635070801,2,-0.06432665125239198,0.02584601166692952,0.7561555613600959,-0.650709565250404,0.06364541500806808,-0.1228031441569328,-0.9903881549835205,-13.12588977813721,-3.155799865722656,-33.66398620605469,-1,2,1048111.856418542,2,0,1617673909.445588,1617673410.617,79,1.5835,0,0,51.15003,0,0,1617673908.814491,1048109.442942,0,-0.3963318,98.16008,1617673908.050909,587422867,1685438189,0,0,1,1617673907.041595,1,0.1,1617673909.914558,-19.28022,-25.6352,0
1617673909.968079,88,0,0,0,0,0,0,0,0,0,1617673909.947687,-13.13536930084229,-3.005880355834961,-34.17689514160156,68.60220336914062,75.63054656982422,17.05908966064453,1048112.362808542,0.0563812255859375,-0.1174163818359375,-0.988067626953125,1048112.341639542,0.009333580732345581,-0.01690468192100525,0.006880809087306261,1048112.343696542,-1.666839599609375,31.50202941894531,-104.7664642333984,1048112.345376542,-1.723550430008113,0.0625184748297274,0.1218384788719864,0.003670329228043556,-0.01769877970218658,0.008490037173032761,-0.002062849700450897,0.006760649383068085,-0.000456392765045166,2,-0.06329796185438337,0.02587496027109795,0.7559826344635463,-0.6510100638991621,0.06201460212469101,-0.1215372607111931,-0.9906477332115173,-13.11280632019043,-3.078254699707031,-34.28425598144531,-1,2,1048111.856418542,2,0,1617673909.445588,1617673410.617,79,1.5835,0,0,51.15003,0,0,1617673908.814491,1048109.442942,0,-0.3963318,98.16008,1617673908.050909,587422867,1685438189,0,0,1,1617673907.041595,1,0.1,1617673909.947427,-19.28022,-26.05293,0
1617673910.007411,89,0,0,0,0,0,0,0,0,0,1617673909.987697,-13.1384391784668,-3.028478622436523,-34.20787048339844,68.59475708007812,75.62310028076172,17.05911064147949,1048112.396431542,0.0599365234375,-0.117218017578125,-0.99591064453125,1048112.375262542,0.01729030720889568,0.01176957413554192,-0.003702326444908977,1048112.343696542,-1.666839599609375,31.50202941894531,-104.7664642333984,1048112.345376542,-1.723550430008113,0.0625184748297274,0.1218384788719864,0.003670329228043556,-0.01769877970218658,0.008490037173032761,-0.002062849700450897,0.006760649383068085,-0.000456392765045166,2,-0.06329796185438337,0.02587496027109795,0.7559826344635463,-0.6510100638991621,0.06201460212469101,-0.1215372607111931,-0.9906477332115173,-13.11280632019043,-3.078254699707031,-34.28425598144531,-1,2,1048111.856418542,2,0,1617673909.445588,1617673410.617,79,1.5835,0,0,51.15003,0,0,1617673908.814491,1048109.442942,0,-0.3963318,98.16008,1617673908.050909,587422867,1685438189,0,0,1,1617673907.041595,1,0.1,1617673909.981246,-19.28022,-27.36102,0
1617673910.037014,90,0,0,0,0,0,0,0,0,0,1617673910.027615,-13.11950397491455,-3.104087829589844,-34.31265258789062,68.61528778076172,75.64363098144531,17.05913162231445,1048112.430052542,0.0568695068359375,-0.124267578125,-0.980743408203125,1048112.408883542,0.03093820810317993,0.02495195530354977,-0.008878978900611401,1048112.403674542,-1.710113525390625,31.49935913085938,-104.5966949462891,1048112.405148542,-1.723712491267806,0.0629165795054471,0.1227355454633536,0.02053776197135448,0.01356022618710995,-0.00795535184442997,-0.003182772547006607,0.001852676272392273,0.0006303191184997559,2,-0.06373701739241125,0.02609073023939876,0.7559928121752977,-0.6509468397646906,0.06240209564566612,-0.1224276274442673,-0.9905137419700623,-13.14356136322021,-3.091581344604492,-34.14706420898438,-1,2,1048111.856418542,2,0,1617673909.445588,1617673410.617,79,1.5835,0,0,51.15003,0,0,1617673908.814491,1048109.442942,0,-0.3963318,98.16008,1617673908.050909,587422867,1685438189,0,0,1,1617673907.041595,1,0.1,1617673910.013905,-19.28022,-27.85195,0
1617673910.077009,91,0,0,0,0,0,0,0,0,0,1617673910.067548,-13.12987518310547,-2.999675750732422,-34.36501312255859,68.62509155273438,75.65343475341797,17.05915832519531,1048112.463675542,0.0671539306640625,-0.124359130859375,-1.0035400390625,1048112.442504542,-0.0009542105835862458,0.0597112663090229,-0.009119728580117226,1048112.463654542,-1.714462280273438,31.59654235839844,-104.8363494873047,1048112.405148542,-1.723712491267806,0.0629165795054471,0.1227355454633536,0.02053776197135448,0.01356022618710995,-0.00795535184442997,-0.003182772547006607,0.001852676272392273,0.0006303191184997559,2,-0.06373701739241125,0.02609073023939876,0.7559928121752977,-0.6509468397646906,0.06240209564566612,-0.1224276274442673,-0.9905137419700623,-13.14356136322021,-3.091581344604492,-34.14706420898438,-1,2,1048111.856418542,2,0,1617673909.445588,1617673410.617,79,1.5835,0,0,51.15003,0,0,1617673908.814491,1048109.442942,0,-0.3963318,98.16008,1617673908.050909,587422867,1685438189,0,0,1,1617673907.041595,1,0.1,1617673910.046902,-19.28022,-28.38004,0
1617673910.106696,92,0,0,0,0,0,0,0,0,0,1617673910.087223,-13.17822742462158,-2.941816329956055,-34.45236206054688,68.61281585693359,75.64115905761719,17.05917167663574,1048112.497296542,0.0666961669921875,-0.116851806640625,-1.01068115234375,1048112.476127542,-0.009202286601066589,-0.01847914233803749,0.008769789710640907,1048112.463654542,-1.714462280273438,31.59654235839844,-104.8363494873047,1048112.464920542,-1.723947393479253,0.06518109713057479,0.122257105285502,-0.0231410376727581,0.03442872315645218,0.008625272661447525,0.002505116164684296,-0.00240635871887207,-0.01311182975769043,2,-0.06443499775374187,0.0251797904635746,0.7560127831579068,-0.6508907430448839,0.06464877724647522,-0.1219527721405029,-0.9904282093048096,-13.14531135559082,-3.008874893188477,-34.38778686523438,-1,2,1048111.856418542,2,0,1617673909.445588,1617673410.617,79,1.5835,0,0,51.15003,0,0,1617673908.814491,1048109.442942,0,-0.3963318,98.16008,1617673908.050909,587422867,1685438189,0,0,1,1617673907.041595,1,0.1,1617673910.099156,-19.28022,-29.28065,0
1617673910.136962,93,0,0,0,0,0,0,0,0,0,1617673910.126951,-13.02118015289307,-2.97807502746582,-34.28408050537109,68.60549163818359,75.63383483886719,17.0591983795166,1048112.530917542,0.0601043701171875,-0.1135711669921875,-1.010025024414062,1048112.509748542,-0.02409015595912933,-0.05010790750384331,-0.01099699083715677,1048112.523632542,-1.736114501953125,31.5848388671875,-104.7344818115234,1048112.464920542,-1.723947393479253,0.06518109713057479,0.122257105285502,-0.0231410376727581,0.03442872315645218,0.008625272661447525,0.002505116164684296,-0.00240635871887207,-0.01311182975769043,2,-0.06443499775374187,0.0251797904635746,0.7560127831579068,-0.6508907430448839,0.06464877724647522,-0.1219527721405029,-0.9904282093048096,-13.14531135559082,-3.008874893188477,-34.38778686523438,-1,2,1048111.856418542,2,0,1617673909.445588,1617673410.617,79,1.5835,0,0,51.15003,0,0,1617673908.814491,1048109.442942,0,-0.3963318,98.16008,1617673908.050909,587422867,1685438189,0,0,1,1617673907.041595,1,0.1,1617673910.11381,-19.28022,-27.33868,0
1617673910.176998,94,0,0,0,0,0,0,0,0,0,1617673910.167171,-13.21341705322266,-2.923723220825195,-34.46125793457031,68.67198181152344,75.70032501220703,17.05922889709473,1048112.564540542,0.060272216796875,-0.12445068359375,-1.00213623046875,1048112.543371542,0.01969407685101032,-0.02147599682211876,-0.03247485309839249,1048112.523632542,-1.736114501953125,31.5848388671875,-104.7344818115234,1048112.524692542,-1.723752283032778,0.06257576168574196,0.1206966955218299,-0.02303793653845787,-0.05883581936359406,-0.02197108790278435,6.902590394020081e-05,0.008129693567752838,-0.02234053611755371,2,-0.06294703010479905,0.02542965607390258,0.756084382475651,-0.6509435930139856,0.06207998842000961,-0.1204038634896278,-0.9907820224761963,-13.1298656463623,-3.011100769042969,-34.29187774658203,-1,2,1048111.856418542,2,0,1617673909.445588,1617673410.617,79,1.5835,0,0,51.15003,0,0,1617673908.814491,1048109.442942,0,-0.3963318,98.16008,1617673908.050909,587422867,1685438189,0,0,1,1617673907.041595,1,0.1,1617673910.158396,-19.28022,-28.42124,0
1617673910.208125,95,0,0,0,0,0,0,0,0,0,1617673910.206724,-13.25646495819092,-2.926469802856445,-34.25809478759766,68.75569152832031,75.78403472900391,17.05928421020508,1048112.598161542,0.0619659423828125,-0.1345977783203125,-0.9936676025390625,1048112.576992542,0.07735710591077805,0.00330658070743084,-0.03653430938720703,1048112.583614542,-1.806381225585938,31.70590209960938,-104.6526489257812,1048112.584464542,-1.725799245504839,0.06194119270375884,0.1222185350798754,0.06031017377972603,0.003282933961600065,-0.03183022141456604,0.0005718395113945007,-0.007922545075416565,-0.00332033634185791,2,-0.06317340593999421,0.02627803893787999,0.7567197766654028,-0.650149116768476,0.06143984198570251,-0.1219144910573959,-0.9906371831893921,-13.24197292327881,-2.899490356445312,-34.21600341796875,-1,2,1048111.856418542,2,0,1617673909.445588,1617673410.617,79,1.5835,0,0,51.15003,0,0,1617673908.814491,1048109.442942,0,-0.3963318,98.16008,1617673908.050909,587422867,1685438189,0,0,1,1617673907.041595,1,0.1,1617673910.18062,-19.28022,-28.42124,0
1617673910.23667,96,0,0,0,0,0,0,0,0,0,1617673910.227357,-13.25434303283691,-2.949991226196289,-34.28901672363281,68.78263854980469,75.81098175048828,17.05932807922363,1048112.631782542,0.0591583251953125,-0.1328277587890625,-1.000762939453125,1048112.610613542,0.03115578927099705,-0.002299905987456441,-0.02238786406815052,1048112.583614542,-1.806381225585938,31.70590209960938,-104.6526489257812,1048112.584464542,-1.725799245504839,0.06194119270375884,0.1222185350798754,0.06031017377972603,0.003282933961600065,-0.03183022141456604,0.0005718395113945007,-0.007922545075416565,-0.00332033634185791,2,-0.06317340593999421,0.02627803893787999,0.7567197766654028,-0.650149116768476,0.06143984198570251,-0.1219144910573959,-0.9906371831893921,-13.24197292327881,-2.899490356445312,-34.21600341796875,-1,2,1048111.856418542,2,0,1617673909.445588,1617673410.617,79,1.5835,0,0,51.15003,0,0,1617673908.814491,1048109.442942,0,-0.3963318,98.16008,1617673908.050909,587422867,1685438189,0,0,1,1617673907.041595,1,0.1,1617673910.218134,-19.28022,-28.53478,0
1617673910.28243,97,0,0,0,0,0,0,0,0,0,1617673910.266602,-13.22504901885986,-2.947309494018555,-34.23986053466797,68.81523132324219,75.84357452392578,17.05939865112305,1048112.665406542,0.066009521484375,-0.1245880126953125,-0.9963836669921875,1048112.644236542,0.02407923713326454,-0.02034362033009529,-0.01619121991097927,1048112.643591542,-1.792800903320312,31.57447814941406,-104.6405944824219,1048112.644236542,-1.727135539361918,0.0612558812093923,0.1230645254433693,0.0127160819247365,-0.02565251477062702,-0.01426198054105043,-0.0002840533852577209,-0.008700340986251831,-0.009042799472808838,2,-0.06316997203011369,0.02686415382678163,0.7571475001245476,-0.6496272774953389,0.06075459718704224,-0.1227541267871857,-0.9905757308006287,-13.23288345336914,-3.021963119506836,-34.19542694091797,-1,2,1048111.856418542,2,0,1617673909.445588,1617673410.617,79,1.5835,0,0,51.15003,0,0,1617673908.814491,1048109.442942,0,-0.3963318,98.16008,1617673908.050909,587422867,1685438189,0,0,1,1617673907.041595,1,0.1,1617673910.282412,-19.28022,-29.67313,0
1617673910.306484,98,0,0,0,0,0,0,0,0,0,1617673910.286448,-13.26606559753418,-2.946081161499023,-34.31409454345703,68.81761932373047,75.84596252441406,17.05941963195801,1048112.699027542,0.0714263916015625,-0.1329193115234375,-0.9978790283203125,1048112.677857542,0.08433325588703156,-0.00307675008662045,0.01457867678254843,1048112.643591542,-1.792800903320312,31.57447814941406,-104.6405944824219,1048112.644236542,-1.727135539361918,0.0612558812093923,0.1230645254433693,0.0127160819247365,-0.02565251477062702,-0.01426198054105043,-0.0002840533852577209,-0.008700340986251831,-0.009042799472808838,2,-0.06316997203011369,0.02686415382678163,0.7571475001245476,-0.6496272774953389,0.06075459718704224,-0.1227541267871857,-0.9905757308006287,-13.23288345336914,-3.021963119506836,-34.19542694091797,-1,2,1048111.856418542,2,0,1617673909.445588,1617673410.617,79,1.5835,0,0,51.15003,0,0,1617673908.814491,1048109.442942,0,-0.3963318,98.16008,1617673908.050909,587422867,1685438189,0,0,1,1617673907.041595,1,0.1,1617673910.282412,-19.28022,-29.67313,0
1617673910.34585,99,0,0,0,0,0,0,0,0,0,1617673910.326473,-13.18580913543701,-3.053274154663086,-34.20933532714844,68.71796417236328,75.74630737304688,17.05945777893066,1048112.732650542,0.0613555908203125,-0.1174774169921875,-0.988922119140625,1048112.711479542,0.05378307029604912,-0.04426439851522446,0.06088412180542946,1048112.703570542,-1.726852416992188,31.54766845703125,-104.5329895019531,1048112.704009542,-1.726510738039436,0.0602360355646572,0.1269141412782953,0.06116106361150742,-0.03991162404417992,0.0559857040643692,0.01163462176918983,-0.004834979772567749,-0.009521424770355225,2,-0.06403767285535307,0.02863741483362527,0.7568477173462065,-0.6498158234869809,0.05971544235944748,-0.1265737116336823,-0.9901581406593323,-13.17064476013184,-3.064662933349609,-34.11798095703125,-1,2,1048111.856418542,2,0,1617673909.445588,1617673410.617,79,1.5835,0,0,51.15003,0,0,1617673908.814491,1048109.442942,0,-0.3963318,98.16008,1617673908.050909,587422867,1685438189,0,0,1,1617673907.041595,1,0.1,1617673910.31388,-19.28022,-30.19726,0
1617673910.376033,100,0,0,0,0,0,0,0,0,0,1617673910.366492,-13.20187950134277,-3.266597747802734,-33.92627716064453,68.60353088378906,75.63187408447266,17.05949783325195,1048112.766267625,0.0567169189453125,-0.0947113037109375,-0.990997314453125,1048112.745098625,-0.03708478435873985,-0.07876431941986084,0.03904886543750763,1048112.763551625,-1.830276489257812,31.52699279785156,-104.4619445800781,1048112.704009542,-1.726510738039436,0.0602360355646572,0.1269141412782953,0.06116106361150742,-0.03991162404417992,0.0559857040643692,0.01163462176918983,-0.004834979772567749,-0.009521424770355225,2,-0.06403767285535307,0.02863741483362527,0.7568477173462065,-0.6498158234869809,0.05971544235944748,-0.1265737116336823,-0.9901581406593323,-13.17064476013184,-3.064662933349609,-34.11798095703125,-1,2,1048111.856418542,2,0,1617673909.445588,1617673410.617,79,1.5835,0,0,51.15003,0,0,1617673908.814491,1048109.442942,0,-0.3963318,98.16008,1617673908.050909,587422867,1685438189,0,0,1,1617673907.041595,1,0.1,1617673910.347171,-19.28022,-30.88769,0
1617673910.405571,101,0,0,0,0,0,0,0,0,0,1617673910.385976,-13.29438972473145,-3.001745223999023,-34.04866027832031,68.62106323242188,75.64940643310547,17.05951881408691,1048112.799888625,0.049530029296875,-0.1233673095703125,-0.960052490234375,1048112.778719625,0.02586222253739834,-0.06742271780967712,-0.03824964910745621,1048112.763551625,-1.830276489257812,31.52699279785156,-104.4619445800781,1048112.763777625,-1.723614604582047,0.0561906742037387,0.1263779471084605,-0.02604655921459198,-0.1019823625683784,-0.002938067074865103,0.002331174910068512,0.03172722458839417,-0.005146205425262451,2,-0.06237622048563912,0.02965786954973353,0.7560517742774056,-0.6508573305334603,0.0557132214307785,-0.1260418146848679,-0.9904592633247375,-13.24865627288818,-3.134599685668945,-33.99507141113281,-1,2,1048111.856418542,2,0,1617673909.445588,1617673410.617,79,1.5835,0,0,51.15003,0,0,1617673908.814491,1048109.442942,0,-0.3963318,98.16008,1617673908.050909,587422867,1685438189,0,0,1,1617673907.041595,1,0.1,1617673910.399582,-19.28022,-27.8776,0
1617673910.450158,102,0,0,0,0,0,0,0,0,0,1617673910.445828,-13.26756191253662,-3.344028472900391,-34.07894897460938,68.72858428955078,75.75692749023438,17.0595874786377,1048112.833511625,0.05633544921875,-0.15338134765625,-0.9715118408203125,1048112.812342625,0.07014473527669907,0.07004806399345398,-0.03509433940052986,1048112.823531625,-1.84033203125,31.36576843261719,-104.5190734863281,1048112.823549625,-1.725839627705373,0.05660241149214776,0.1279711106610344,0.04824629426002502,0.08550088107585907,-0.01153299398720264,-0.002612315118312836,-0.0193505585193634,0.02644360065460205,2,-0.06301459435714264,0.030198089779288,0.7567094759274855,-0.6500061397392807,0.05610959231853485,-0.1276221126317978,-0.9902344942092896,-13.30178737640381,-3.205863952636719,-34.05445098876953,-1,2,1048111.856418542,2,0,1617673909.445588,1617673410.617,79,1.5835,0,0,51.15003,0,0,1617673908.814491,1048110.392012,0,-0.3831177,98.15993,1617673908.050909,587422867,1685438189,0,0,1,1617673907.041595,1,0.1,1617673910.413795,-19.28022,-27.8776,0
1617673910.475776,103,0,0,0,0,0,0,0,0,0,1617673910.465749,-13.23954677581787,-3.369701385498047,-34.14452362060547,68.69380950927734,75.72215270996094,17.05961418151855,1048112.867132625,0.0556182861328125,-0.1377410888671875,-0.9915771484375,1048112.845963625,0.005428853910416365,0.08219686895608902,0.0246448926627636,1048112.823531625,-1.84033203125,31.36576843261719,-104.5190734863281,1048112.823549625,-1.725839627705373,0.05660241149214776,0.1279711106610344,0.04824629426002502,0.08550088107585907,-0.01153299398720264,-0.002612315118312836,-0.0193505585193634,0.02644360065460205,2,-0.06301459435714264,0.030198089779288,0.7567094759274855,-0.6500061397392807,0.05610959231853485,-0.1276221126317978,-0.9902344942092896,-13.30178737640381,-3.205863952636719,-34.05445098876953,-1,2,1048111.856418542,2,0,1617673909.445588,1617673410.617,79,1.5835,0,0,51.15003,0,0,1617673908.814491,1048110.392012,0,-0.3831177,98.15993,1617673908.050909,587422867,1685438189,0,0,1,1617673907.041595,1,0.1,1617673910.460129,-19.28022,-28.63504,0
1617673910.509841,104,0,0,0,0,0,0,0,0,0,1617673910.505475,-13.10516929626465,-3.479974746704102,-33.69793701171875,68.60988616943359,75.63822937011719,17.05966567993164,1048112.900753625,0.0540008544921875,-0.1198577880859375,-1.016494750976562,1048112.879584625,-0.04197274893522263,0.01897741854190826,0.03286633640527725,1048112.883516625,-1.638717651367188,31.03564453125,-103.8948822021484,1048112.883321625,-1.724178992658044,0.05982197269281592,0.1257748289345424,-0.04806533083319664,0.003216466400772333,0.03003405034542084,-0.001559551805257797,0.0010690838098526,-0.01754742860794067,2,-0.06354544098342195,0.02826532111599016,0.7561412048386636,-0.6507023174076939,0.05931403115391731,-0.1254434734582901,-0.9903261065483093,-13.08663654327393,-3.559331893920898,-33.54761505126953,-1,2,1048111.856418542,2,0,1617673909.445588,1617673410.617,79,1.5835,0,0,51.15003,0,0,1617673908.814491,1048110.392012,0,-0.3831177,98.15993,1617673908.050909,587422867,1685438189,0,0,1,1617673907.041595,1,0.1,1617673910.480906,-19.28022,-28.63504,0
1617673910.545206,105,0,0,0,0,0,0,0,0,0,1617673910.525847,-13.19345569610596,-3.37457275390625,-34.13132476806641,68.58861541748047,75.61695861816406,17.0596923828125,1048112.934376625,0.0490264892578125,-0.1238861083984375,-1.006591796875,1048112.913207625,0.02182300761342049,0.009221994318068027,0.01437654253095388,1048112.883516625,-1.638717651367188,31.03564453125,-103.8948822021484,1048112.883321625,-1.724178992658044,0.05982197269281592,0.1257748289345424,-0.04806533083319664,0.003216466400772333,0.03003405034542084,-0.001559551805257797,0.0010690838098526,-0.01754742860794067,2,-0.06354544098342195,0.02826532111599016,0.7561412048386636,-0.6507023174076939,0.05931403115391731,-0.1254434734582901,-0.9903261065483093,-13.08663654327393,-3.559331893920898,-33.54761505126953,-1,2,1048111.856418542,2,0,1617673909.445588,1617673410.617,79,1.5835,0,0,51.15003,0,0,1617673908.814491,1048110.392012,0,-0.3831177,98.15993,1617673908.050909,587422867,1685438189,0,0,1,1617673907.041595,1,0.1,1617673910.513958,-20.39478,-27.60713,0
1617673910.584016,106,0,0,0,0,0,0,0,0,0,1617673910.565491,-13.23080825805664,-3.313957214355469,-34.2874755859375,68.56833648681641,75.5966796875,17.05974578857422,1048112.967997625,0.055145263671875,-0.1203155517578125,-1.018325805664062,1048112.946828625,0.06711112707853317,0.05984602123498917,0.006228068377822638,1048112.943491625,-1.818252563476562,31.35772705078125,-104.6637573242188,1048112.943093625,-1.723073461919149,0.06032349858796918,0.12756486104829,0.05328688025474548,0.05391635373234749,0.009240409359335899,-0.01055698841810226,0.003348320722579956,-0.01877957582473755,2,-0.0643307456838344,0.02874553641627245,0.7557049269734476,-0.6511107695856737,0.05979706719517708,-0.127219170331955,-0.9900705218315125,-13.23593711853027,-3.280130386352539,-34.17218017578125,-1,2,1048111.856418542,2,0,1617673909.445588,1617673410.617,79,1.5835,0,0,51.15003,0,0,1617673908.814491,1048110.392012,0,-0.3831177,98.15993,1617673908.050909,587422867,1685438189,0,0,1,1617673907.041595,1,0.1,1617673910.583994,-22.06661,-27.18085,0
1617673910.614777,107,0,0,0,0,0,0,0,0,0,1617673910.605534,-13.09732151031494,-3.492206573486328,-34.11128997802734,68.60102081298828,75.62936401367188,17.05982780456543,1048113.001620625,0.0573272705078125,-0.1231689453125,-1.005264282226562,1048112.980449625,0.06395368278026581,-0.01970286481082439,-0.01535765081644058,1048113.003476625,-1.68927001953125,31.0804443359375,-104.5052337646484,1048112.943093625,-1.723073461919149,0.06032349858796918,0.12756486104829,0.05328688025474548,0.05391635373234749,0.009240409359335899,-0.01055698841810226,0.003348320722579956,-0.01877957582473755,2,-0.0643307456838344,0.02874553641627245,0.7557049269734476,-0.6511107695856737,0.05979706719517708,-0.127219170331955,-0.9900705218315125,-13.23593711853027,-3.280130386352539,-34.17218017578125,-1,2,1048111.856418542,2,0,1617673909.445588,1617673410.617,79,1.5835,0,0,51.15003,0,0,1617673908.814491,1048110.392012,0,-0.3831177,98.15993,1617673908.050909,587422867,1685438189,0,0,1,1617673907.041595,1,0.1,1617673910.613896,-21.91146,-27.70444,0
1617673910.644935,108,0,0,0,0,0,0,0,0,0,1617673910.625085,-13.11115455627441,-3.500455856323242,-34.14097595214844,68.63545989990234,75.66380310058594,17.05989646911621,1048113.035241625,0.0578460693359375,-0.1355438232421875,-0.9750213623046875,1048113.014072625,0.01017274241894484,-0.05158809199929237,-0.03519207611680031,1048113.003476625,-1.68927001953125,31.0804443359375,-104.5052337646484,1048113.002865625,-1.723722736949738,0.06017655957766731,0.130083908465863,0.01805699430406094,-0.05764706432819366,-0.02985218539834023,-0.002304889261722565,0.006548389792442322,-0.01550805568695068,2,-0.06508193068653653,0.02976945210604241,0.7558348677357931,-0.6508393490837538,0.05963212251663208,-0.1297173500061035,-0.9897562265396118,-13.11802387237549,-3.518266677856445,-34.07869720458984,-1,2,1048111.856418542,2,0,1617673909.445588,1617673410.617,79,1.5835,0,0,51.15003,0,0,1617673908.814491,1048110.392012,0,-0.3831177,98.15993,1617673908.050909,587422867,1685438189,0,0,1,1617673907.041595,1,0.1,1617673910.613896,-21.91146,-27.70444,0
1617673910.674952,109,0,0,0,0,0,0,0,0,0,1617673910.664967,-13.19061183929443,-3.516963958740234,-34.16909027099609,68.69715118408203,75.72549438476562,17.06001281738281,1048113.068862625,0.066925048828125,-0.141448974609375,-0.971710205078125,1048113.047693625,0.0234315562993288,0.01912495866417885,-0.02709047310054302,1048113.063461625,-1.724090576171875,31.11067199707031,-104.6431274414062,1048113.002865625,-1.723722736949738,0.06017655957766731,0.130083908465863,0.01805699430406094,-0.05764706432819366,-0.02985218539834023,-0.002304889261722565,0.006548389792442322,-0.01550805568695068,2,-0.06508193068653653,0.02976945210604241,0.7558348677357931,-0.6508393490837538,0.05963212251663208,-0.1297173500061035,-0.9897562265396118,-13.11802387237549,-3.518266677856445,-34.07869720458984,-1,2,1048111.856418542,2,0,1617673909.445588,1617673410.617,79,1.5835,0,0,51.15003,0,0,1617673908.814491,1048110.392012,0,-0.3831177,98.15993,1617673908.050909,587422867,1685438189,0,0,1,1617673907.041595,1,0.1,1617673910.647393,-21.91146,-28.40371,0
1617673910.714466,110,0,0,0,0,0,0,0,0,0,1617673910.704838,-13.14890384674072,-3.492448806762695,-34.15673828125,68.68642425537109,75.71476745605469,17.0600700378418,1048113.102485625,0.07330322265625,-0.1398468017578125,-0.9842376708984375,1048113.081316625,0.04979445412755013,0.05659323930740356,0.009557286277413368,1048113.063461625,-1.724090576171875,31.11067199707031,-104.6431274414062,1048113.062637625,-1.725328319223044,0.05865913897687693,0.1297128498356131,0.0298360139131546,0.03474578261375427,-0.01119645964354277,0.006259061396121979,-0.01129084825515747,0.02266943454742432,2,-0.06436404194039932,0.03017422909213974,0.7564189206200677,-0.6502131624594863,0.05813299492001534,-0.129349410533905,-0.9898935556411743,-13.16948509216309,-3.503686904907227,-34.19380187988281,-1,2,1048111.856418542,2,0,1617673909.445588,1617673410.617,79,1.5835,0,0,51.15003,0,0,1617673908.814491,1048110.392012,0,-0.3831177,98.15993,1617673908.050909,587422867,1685438189,0,0,1,1617673907.041595,1,0.1,1617673910.713734,-21.91146,-28.814,0
1617673910.748925,111,0,0,0,0,0,0,0,0,0,1617673910.744657,-13.1336555480957,-3.590423583984375,-34.17619323730469,68.62660980224609,75.65495300292969,17.06012916564941,1048113.136106625,0.0728912353515625,-0.127777099609375,-1.005203247070312,1048113.114937625,0.002353435382246971,0.02859329432249069,0.02901673689484596,1048113.123447625,-1.6888427734375,31.04893493652344,-104.5693511962891,1048113.122409625,-1.724326623425589,0.06098606295361769,0.1308255712374485,-0.01929889433085918,0.001917654182761908,0.0236995629966259,0.0144474059343338,0.0007987767457962036,-0.01078540086746216,2,-0.06561909291759709,0.02980707663202834,0.7559792530967712,-0.6506158228805697,0.06042743474245071,-0.1304527074098587,-0.9896113276481628,-13.14327049255371,-3.564325332641602,-34.11720275878906,-1,2,1048111.856418542,2,0,1617673909.445588,1617673410.617,79,1.5835,0,0,51.15003,0,0,1617673908.814491,1048110.392012,0,-0.3831177,98.15993,1617673908.050909,587422867,1685438189,0,0,1,1617673907.041595,1,0.1,1617673910.713734,-21.91146,-28.814,0
1617673910.774343,112,0,0,0,0,0,0,0,0,0,1617673910.764777,-13.16947555541992,-3.435731887817383,-34.30183410644531,68.61065673828125,75.63899993896484,17.06015777587891,1048113.169727625,0.069000244140625,-0.13690185546875,-0.98681640625,1048113.148558625,-0.00768854608759284,-0.02932752855122089,0.009956227615475655,1048113.123447625,-1.6888427734375,31.04893493652344,-104.5693511962891,1048113.122409625,-1.724326623425589,0.06098606295361769,0.1308255712374485,-0.01929889433085918,0.001917654182761908,0.0236995629966259,0.0144474059343338,0.0007987767457962036,-0.01078540086746216,2,-0.06561909291759709,0.02980707663202834,0.7559792530967712,-0.6506158228805697,0.06042743474245071,-0.1304527074098587,-0.9896113276481628,-13.14327049255371,-3.564325332641602,-34.11720275878906,-1,2,1048111.856418542,2,0,1617673909.445588,1617673410.617,79,1.5835,0,0,51.15003,0,0,1617673908.814491,1048110.392012,0,-0.3831177,98.15993,1617673908.050909,587422867,1685438189,0,0,1,1617673907.041595,1,0.1,1617673910.76013,-21.91146,-29.77861,0
1617673910.819144,113,0,0,0,0,0,0,0,0,0,1617673910.804537,-13.18442153930664,-3.42529296875,-34.20197296142578,68.53610992431641,75.564453125,17.06021881103516,1048113.203350625,0.0664520263671875,-0.1417236328125,-0.97882080078125,1048113.182181625,0.007493336219340563,0.01510411780327559,0.03505252674221992,1048113.183429625,-1.70867919921875,31.13401794433594,-104.5185089111328,1048113.182181625,-1.723162388277435,0.05986784669491755,0.1308542968582131,-0.003865624312311411,0.009796369820833206,0.03698005527257919,0.007451854646205902,-0.009914934635162354,0.01331043243408203,2,-0.06522326825958122,0.03014376846437609,0.7556359792068111,-0.6510387603015235,0.05932057276368141,-0.1304811835289001,-0.9896745681762695,-13.15226745605469,-3.48614501953125,-34.08650207519531,-1,2,1048111.856418542,2,0,1617673909.445588,1617673410.617,79,1.5835,0,0,51.15003,0,0,1617673908.814491,1048110.392012,0,-0.3831177,98.15993,1617673908.050909,587422867,1685438189,0,0,1,1617673907.041595,1,0.1,1617673910.819125,-21.91146,-27.64191,0
1617673910.844501,114,0,0,0,0,0,0,0,0,0,1617673910.824528,-13.25496673583984,-3.420482635498047,-34.36869049072266,68.45470428466797,75.48304748535156,17.06025123596191,1048113.236971625,0.0732269287109375,-0.1350250244140625,-0.9922637939453125,1048113.215802625,0.009984190575778484,0.02949743904173374,0.08295667171478271,1048113.183429625,-1.70867919921875,31.13401794433594,-104.5185089111328,1048113.182181625,-1.723162388277435,0.05986784669491755,0.1308542968582131,-0.003865624312311411,0.009796369820833206,0.03698005527257919,0.007451854646205902,-0.009914934635162354,0.01331043243408203,2,-0.06522326825958122,0.03014376846437609,0.7556359792068111,-0.6510387603015235,0.05932057276368141,-0.1304811835289001,-0.9896745681762695,-13.15226745605469,-3.48614501953125,-34.08650207519531,-1,2,1048111.856418542,2,0,1617673909.445588,1617673410.617,79,1.5835,0,0,51.15003,0,0,1617673908.814491,1048110.392012,0,-0.3831177,98.15993,1617673908.050909,587422867,1685438189,0,0,1,1617673907.041595,1,0.1,1617673910.819125,-21.91146,-27.64191,0
