2021-04-05 21:19:59.328 -0400,0,0,0,0,0,0,0,0,0,14661.822046625,-0.08203125,-0.33917236328125,-0.942718505859375,14661.801935625,-0.03198022336581157,-0.08729525660192063,0.3516682130799625,0.04144515842199326,0.03477611020207405,0.001103485003113747,0.004364565014839172,-0.003069847822189331,-0.003435015678405762,XArbitraryZVertical,0.1740535822884278,-0.04574984812188184,-0.02335975188754134,0.9833954255385525,-0.08184868842363358,-0.3444643914699554,-0.9352245926856995,0,0,0,-1,-1,14654.606497,unknown,2,2021-04-05 21:19:52.106 -0400,2021-04-05 19:23:45.401 -0400,642,1.416612,0,0,471.0333,0,0,2021-04-05 21:19:49.536 -0400,639364797.2541279,0,-2.16,98.19253,1,0.7
loggingTime(txt),locationTimestamp_since1970(s),locationLatitude(WGS84),locationLongitude(WGS84),locationAltitude(m),locationSpeed(m/s),locationCourse(°),locationVerticalAccuracy(m),locationHorizontalAccuracy(m),locationFloor(Z),accelerometerTimestamp_sinceReboot(s),accelerometerAccelerationX(G),accelerometerAccelerationY(G),accelerometerAccelerationZ(G),motionTimestamp_sinceReboot(s),motionYaw(rad),motionRoll(rad),motionPitch(rad),motionRotationRateX(rad/s),motionRotationRateY(rad/s),motionRotationRateZ(rad/s),motionUserAccelerationX(G),motionUserAccelerationY(G),motionUserAccelerationZ(G),motionAttitudeReferenceFrame(txt),motionQuaternionX(R),motionQuaternionY(R),motionQuaternionZ(R),motionQuaternionW(R),motionGravityX(G),motionGravityY(G),motionGravityZ(G),motionMagneticFieldX(µT),motionMagneticFieldY(µT),motionMagneticFieldZ(µT),motionHeading(°),motionMagneticFieldCalibrationAccuracy(Z),activityTimestamp_sinceReboot(s),activity(txt),activityActivityConfidence(Z),activityActivityStartDate(txt),pedometerStartDate(txt),pedometerNumberofSteps(N),pedometerAverageActivePace(s/m),pedometerCurrentPace(s/m),pedometerCurrentCadence(steps/s),pedometerDistance(m),pedometerFloorAscended(N),pedometerFloorDescended(N),pedometerEndDate(txt),altimeterTimestamp_sinceReboot(s),altimeterReset(bool),altimeterRelativeAltitude(m),altimeterPressure(kPa),batteryState(N),batteryLevel(R)
2021-04-05 21:19:59.359 -0400,0,0,0,0,0,0,0,0,0,14661.857244625,-0.07696533203125,-0.34747314453125,-0.9252777099609375,14661.832117625,-0.03210858361486651,-0.08560669379854456,0.3522127683495271,0.0117138521745801,0.03016163036227226,-0.001892105210572481,-0.001777917146682739,0.005803167819976807,-0.007544040679931641,XArbitraryZVertical,0.1743381731925445,-0.04493299818563284,-0.02328661258776273,0.9833844750488211,-0.08025333285331726,-0.3449755907058716,-0.9351744651794434,0,0,0,-1,-1,14654.606497,unknown,2,2021-04-05 21:19:52.106 -0400,2021-04-05 19:23:45.401 -0400,642,1.416612,0,0,471.0333,0,0,2021-04-05 21:19:49.536 -0400,639364797.2541279,0,-2.16,98.19253,1,0.7
2021-04-05 21:19:59.399 -0400,0,0,0,0,0,0,0,0,0,14661.892450625,-0.0913238525390625,-0.3471221923828125,-0.91802978515625,14661.862269625,-0.03206691384164335,-0.08574416020940169,0.3522688765643451,-0.00253385934047401,-0.01664299517869949,-0.002277098596096039,0.004727162420749664,-0.002368658781051636,0.006433188915252686,XArbitraryZVertical,0.1743650997714689,-0.04499718738937956,-0.02327921057834025,0.983376966560113,-0.08038023114204407,-0.3450282514095306,-0.9351441264152527,0,0,0,-1,-1,14654.606497,unknown,2,2021-04-05 21:19:52.106 -0400,2021-04-05 19:23:45.401 -0400,642,1.416612,0,0,471.0333,0,0,2021-04-05 21:19:49.536 -0400,639364797.2541279,0,-2.16,98.19253,1,0.7
2021-04-05 21:19:59.429 -0400,0,0,0,0,0,0,0,0,0,14661.927648625,-0.0711517333984375,-0.3350830078125,-0.9251556396484375,14661.892450625,-0.0326181033496799,-0.08542060423038574,0.3517060775222593,-0.03635965660214424,0.03482886403799057,-0.03463935106992722,-0.009429104626178741,-0.001462608575820923,0.02091944217681885,XArbitraryZVertical,0.1740797089411156,-0.04488374271832311,-0.023510992890946,0.9834271601292213,-0.08009421080350876,-0.344499945640564,-0.9353634119033813,0,0,0,-1,-1,14654.606497,unknown,2,2021-04-05 21:19:52.106 -0400,2021-04-05 19:23:45.401 -0400,642,1.416612,0,0,471.0333,0,0,2021-04-05 21:19:49.536 -0400,639364797.2541279,0,-2.16,98.19253,1,0.7
2021-04-05 21:19:59.469 -0400,0,0,0,0,0,0,0,0,0,14661.962854625,-0.06304931640625,-0.3413238525390625,-0.9378509521484375,14661.952784625,-0.03426784815892012,-0.08322580778006342,0.3504742138746612,-0.01929114572703838,-0.04098092764616013,0.01171569898724556,0.0185212567448616,0.008580595254898071,0.008972465991973877,XArbitraryZVertical,0.1734632999084525,-0.04394220182483798,-0.02410779715281784,0.983564054360334,-0.07807630300521851,-0.3433432281017303,-0.9359591603279114,0,0,0,-1,-1,14654.606497,unknown,2,2021-04-05 21:19:52.106 -0400,2021-04-05 19:23:45.401 -0400,642,1.416612,0,0,471.0333,0,0,2021-04-05 21:19:49.536 -0400,639364797.2541279,0,-2.16,98.19253,1,0.7
2021-04-05 21:19:59.499 -0400,0,0,0,0,0,0,0,0,0,14661.998022625,-0.07666015625,-0.342071533203125,-0.96026611328125,14661.982966625,-0.03383198497440877,-0.08557654257864372,0.3494665238880756,-0.05810050293803215,-0.05934590473771095,0.0005107149481773376,0.01383852958679199,0.002049267292022705,-0.007837176322937012,XArbitraryZVertical,0.1729489544491583,-0.0450557817829035,-0.02407758146282536,0.9836051289065182,-0.08030581474304199,-0.34239661693573,-0.9361172914505005,0,0,0,-1,-1,14654.606497,unknown,2,2021-04-05 21:19:52.106 -0400,2021-04-05 19:23:45.401 -0400,642,1.416612,0,0,471.0333,0,0,2021-04-05 21:19:49.536 -0400,639364797.2541279,0,-2.16,98.19253,1,0.7
2021-04-05 21:19:59.540 -0400,0,0,0,0,0,0,0,0,0,14662.033228625,-0.073333740234375,-0.33221435546875,-0.944915771484375,14662.013117625,-0.03428566695317935,-0.08654680426638406,0.3483004572367345,-0.008899258449673653,-0.01895443350076675,-0.01661582477390766,0.004954561591148376,-0.001915186643600464,-0.02596628665924072,XArbitraryZVertical,0.172353282547747,-0.04556672520452654,-0.02436149538530819,0.9836791523876421,-0.08124850690364838,-0.3413008153438568,-0.9364360570907593,0,0,0,-1,-1,14654.606497,unknown,2,2021-04-05 21:19:52.106 -0400,2021-04-05 19:23:45.401 -0400,642,1.416612,0,0,471.0333,0,0,2021-04-05 21:19:49.536 -0400,639364797.2541279,0,-2.16,98.19253,1,0.7
2021-04-05 21:19:59.571 -0400,0,0,0,0,0,0,0,0,0,14662.068426625,-0.081573486328125,-0.354736328125,-0.931060791015625,14662.043299625,-0.03421541772655042,-0.08609743964485708,0.3497738389381769,0.07507321238517761,0.01938080787658691,0.04239892959594727,0.007450632750988007,0.01047095656394958,-0.008945345878601074,XArbitraryZVertical,0.173085158886642,-0.04534654957619964,-0.0243172492957325,0.98356192017354,-0.08078436553478241,-0.342685341835022,-0.9359704256057739,0,0,0,-1,-1,14654.606497,unknown,2,2021-04-05 21:19:52.106 -0400,2021-04-05 19:23:45.401 -0400,642,1.416612,0,0,471.0333,0,0,2021-04-05 21:19:49.536 -0400,639364797.2541279,0,-2.16,98.19253,1,0.7
2021-04-05 21:19:59.610 -0400,0,0,0,0,0,0,0,0,0,14662.103632625,-0.0786895751953125,-0.35009765625,-0.948028564453125,14662.073450625,-0.03277924150863553,-0.08659040140365748,0.3505631436624989,-0.02651123143732548,-0.04210260882973671,0.02531944215297699,0.003677181899547577,-0.009432762861251831,0.006217420101165771,XArbitraryZVertical,0.1735001134643064,-0.04546807060090014,-0.02366932303822912,0.9834989474343634,-0.08122234046459198,-0.3434267640113831,-0.935660719871521,0,0,0,-1,-1,14654.606497,unknown,2,2021-04-05 21:19:52.106 -0400,2021-04-05 19:23:45.401 -0400,642,1.416612,0,0,471.0333,0,0,2021-04-05 21:19:49.536 -0400,639364797.2541279,0,-2.16,98.19253,1,0.7
2021-04-05 21:19:59.641 -0400,0,0,0,0,0,0,0,0,0,14662.138830625,-0.084869384765625,-0.350494384765625,-0.9422149658203125,14662.133814625,-0.03260304751597976,-0.08690703857784539,0.3487776163087596,-0.01869633980095387,0.03298800438642502,0.007359583396464586,0.0005322694778442383,-0.003892868757247925,-0.01024305820465088,XArbitraryZVertical,0.1726220618577017,-0.04560091798007391,-0.02357449120787549,0.9836495901506468,-0.08157169073820114,-0.3417492806911469,-0.9362443685531616,0,0,0,-1,-1,14654.606497,unknown,2,2021-04-05 21:19:52.106 -0400,2021-04-05 19:23:45.401 -0400,642,1.416612,0,0,471.0333,0,0,2021-04-05 21:19:49.536 -0400,639364797.2541279,0,-2.16,98.19253,1,0.7
2021-04-05 21:19:59.680 -0400,0,0,0,0,0,0,0,0,0,14662.174036625,-0.07879638671875,-0.3459625244140625,-0.9403228759765625,14662.163965625,-0.03316100015876108,-0.08530668227952112,0.3473688324057603,-0.07752902060747147,0.05621306225657463,-0.02813590876758099,-0.002603687345981598,-0.01174792647361755,-0.002951562404632568,XArbitraryZVertical,0.1719352445215717,-0.04485567630737764,-0.02368322069784494,0.9838015570839677,-0.0801142081618309,-0.3404249846935272,-0.9368524551391602,0,0,0,-1,-1,14654.606497,unknown,2,2021-04-05 21:19:52.106 -0400,2021-04-05 19:23:45.401 -0400,642,1.416612,0,0,471.0333,0,0,2021-04-05 21:19:49.536 -0400,639364797.2541279,0,-2.16,98.19253,1,0.7
2021-04-05 21:19:59.711 -0400,0,0,0,0,0,0,0,0,0,14662.209203625,-0.06854248046875,-0.334747314453125,-0.9346466064453125,14662.194147625,-0.03401093434193593,-0.08302032834843802,0.3462523976357972,-0.00547772878780961,0.06791167706251144,-0.009151965379714966,0.005676835775375366,-0.003535807132720947,-0.005200326442718506,XArbitraryZVertical,0.1713942469350449,-0.04379871714700062,-0.02388357775139413,0.9839387210470224,-0.07800348848104477,-0.3393750190734863,-0.937411367893219,0,0,0,-1,-1,14654.606497,unknown,2,2021-04-05 21:19:52.106 -0400,2021-04-05 19:23:45.401 -0400,642,1.416612,0,0,471.0333,0,0,2021-04-05 21:19:49.536 -0400,639364797.2541279,0,-2.16,98.19253,1,0.7
2021-04-05 21:19:59.786 -0400,0,0,0,0,0,0,0,0,0,14662.244440625,-0.0709991455078125,-0.3410186767578125,-0.927276611328125,14662.224299625,-0.03366032520414863,-0.08140766135921944,0.3473578603024796,0.05539729446172714,0.03892752900719643,0.01792445965111256,0.007460862398147583,0.003897279500961304,0.004330635070800781,XArbitraryZVertical,0.171964985145613,-0.042980550758885,-0.02359342608743862,0.9838821035540045,-0.07646110653877258,-0.3404146730899811,-0.9371614456176758,0,0,0,-1,-1,14654.606497,unknown,2,2021-04-05 21:19:52.106 -0400,2021-04-05 19:23:45.401 -0400,642,1.416612,0,0,471.0333,0,0,2021-04-05 21:19:49.536 -0400,639364797.2541279,0,-2.16,98.19253,1,0.7
2021-04-05 21:19:59.828 -0400,0,0,0,0,0,0,0,0,0,14662.279608625,-0.07220458984375,-0.34283447265625,-0.9341888427734375,14662.254480625,-0.03278990105927944,-0.08179220575429974,0.3491384173982996,0.03556966036558151,-0.01654165051877499,0.01868219487369061,0.005772694945335388,0.001069605350494385,0.00924980640411377,XArbitraryZVertical,0.1728552716765444,-0.04310293329508439,-0.0232316076352569,0.9837294197971034,-0.07677183300256729,-0.3420883417129517,-0.936526358127594,0,0,0,-1,-1,14654.606497,unknown,2,2021-04-05 21:19:52.106 -0400,2021-04-05 19:23:45.401 -0400,642,1.416612,0,0,471.0333,0,0,2021-04-05 21:19:49.536 -0400,639364797.2541279,0,-2.16,98.19253,1,0.7
2021-04-05 21:19:59.834 -0400,0,0,0,0,0,0,0,0,0,14662.314814625,-0.0903778076171875,-0.352264404296875,-0.944854736328125,14662.284662625,-0.03206577478851939,-0.08264466197119685,0.3493793416732417,0.001874825917184353,-0.02012808993458748,0.0223118681460619,0.004458494484424591,0.0003499388694763184,0.00460052490234375,XArbitraryZVertical,0.1729796441325533,-0.04346067911181224,-0.02295368265829106,0.9836982506972286,-0.07756334543228149,-0.3423147201538086,-0.9363784193992615,0,0,0,-1,-1,14654.606497,unknown,2,2021-04-05 21:19:52.106 -0400,2021-04-05 19:23:45.401 -0400,642,1.416612,0,0,471.0333,0,0,2021-04-05 21:19:49.536 -0400,639364797.2541279,0,-2.16,98.19253,1,0.7
2021-04-05 21:19:59.851 -0400,0,0,0,0,0,0,0,0,0,14662.350012625,-0.0819091796875,-0.339080810546875,-0.9249114990234375,14662.314814625,-0.0317680125526202,-0.08293226493439111,0.3493981065611943,0.007911535911262035,0.008519698865711689,-0.005184987559914589,-0.002902135252952576,-0.002989351749420166,-0.008855998516082764,XArbitraryZVertical,0.1729920451490411,-0.04357645653444178,-0.02283245698180087,0.9836938677546033,-0.07783211767673492,-0.3423323333263397,-0.9363496899604797,0,0,0,-1,-1,14654.606497,unknown,2,2021-04-05 21:19:52.106 -0400,2021-04-05 19:23:45.401 -0400,642,1.416612,0,0,471.0333,0,0,2021-04-05 21:19:49.536 -0400,639364799.8288157,0,-2.21,98.19299,1,0.7
2021-04-05 21:19:59.892 -0400,0,0,0,0,0,0,0,0,0,14662.385218625,-0.0939788818359375,-0.3585662841796875,-0.9569244384765625,14662.375147625,-0.03215573729915785,-0.08058104833819153,0.352058265218623,0.02727978490293026,0.00549764558672905,-0.01241841539740562,-0.00586412101984024,-0.008913993835449219,0.004375219345092773,XArbitraryZVertical,0.1743191441221522,-0.0424652236395269,-0.02286880093420402,0.9835072968367231,-0.07555677741765976,-0.3448305726051331,-0.935619056224823,0,0,0,-1,-1,14654.606497,unknown,2,2021-04-05 21:19:52.106 -0400,2021-04-05 19:23:45.401 -0400,642,1.416612,0,0,471.0333,0,0,2021-04-05 21:19:49.536 -0400,639364799.8288157,0,-2.21,98.19299,1,0.7
2021-04-05 21:19:59.921 -0400,0,0,0,0,0,0,0,0,0,14662.420416625,-0.045318603515625,-0.357269287109375,-0.9432830810546875,14662.405329625,-0.03397525369537973,-0.07689627912420867,0.3523563939365785,-0.02232423052191734,0.2684840857982635,-0.08438970893621445,-0.04594116657972336,-0.02306899428367615,-0.02405023574829102,XArbitraryZVertical,0.1744705760573391,-0.04081325224757271,-0.02344761159091855,0.9835367279940821,-0.07210082560777664,-0.3451103866100311,-0.9357885718345642,0,0,0,-1,-1,14654.606497,unknown,2,2021-04-05 21:19:52.106 -0400,2021-04-05 19:23:45.401 -0400,642,1.416612,0,0,471.0333,0,0,2021-04-05 21:19:49.536 -0400,639364799.8288157,0,-2.21,98.19299,1,0.7
2021-04-05 21:19:59.962 -0400,0,0,0,0,0,0,0,0,0,14662.455622625,-0.0334320068359375,-0.3287200927734375,-0.937255859375,14662.435511625,-0.03739246522078733,-0.07134901784942804,0.3514112770560381,-0.08454980701208115,0.08182357251644135,-0.07744215428829193,0.03075332194566727,-0.001876741647720337,-0.005044460296630859,XArbitraryZVertical,0.1740046686995476,-0.03837754304981945,-0.0246291873548278,0.9836884488771436,-0.06693190336227417,-0.3442231714725494,-0.9364990592002869,0,0,0,-1,-1,14654.606497,unknown,2,2021-04-05 21:19:52.106 -0400,2021-04-05 19:23:45.401 -0400,642,1.416612,0,0,471.0333,0,0,2021-04-05 21:19:49.536 -0400,639364799.8288157,0,-2.21,98.19299,1,0.7
2021-04-05 21:19:59.992 -0400,0,0,0,0,0,0,0,0,0,14662.490789625,-0.071197509765625,-0.3481292724609375,-0.916290283203125,14662.465662625,-0.03692913902698455,-0.06932916964852345,0.3479282814255139,-0.08188466727733612,0.03380946815013885,0.07290782034397125,0.03169084340333939,0.01223081350326538,0.0005668997764587402,XArbitraryZVertical,0.1723242831369512,-0.03732260620784286,-0.02417171200079116,0.9840361681418839,-0.06512284278869629,-0.3409509658813477,-0.937822699546814,0,0,0,-1,-1,14654.606497,unknown,2,2021-04-05 21:19:52.106 -0400,2021-04-05 19:23:45.401 -0400,642,1.416612,0,0,471.0333,0,0,2021-04-05 21:19:49.536 -0400,639364799.8288157,0,-2.21,98.19299,1,0.7
2021-04-05 21:20:00.032 -0400,0,0,0,0,0,0,0,0,0,14662.525995625,-0.0480804443359375,-0.334442138671875,-0.9321441650390625,14662.495844625,-0.03461844017579629,-0.07037232406919958,0.3470186862373889,-0.05083605274558067,0.06015769392251968,0.02890665456652641,-0.001397259533405304,-0.007530063390731812,0.02718985080718994,XArbitraryZVertical,0.1719076055617624,-0.03763176566234024,-0.02311029604268308,0.9841227191048816,-0.0661228820681572,-0.340095728635788,-0.9380632638931274,0,0,0,-1,-1,14654.606497,unknown,2,2021-04-05 21:19:52.106 -0400,2021-04-05 19:23:45.401 -0400,642,1.416612,0,0,471.0333,0,0,2021-04-05 21:19:49.536 -0400,639364799.8288157,0,-2.21,98.19299,1,0.7
2021-04-05 21:20:00.062 -0400,0,0,0,0,0,0,0,0,0,14662.561193625,-0.060791015625,-0.33624267578125,-0.9482574462890625,14662.525995625,-0.03505103890891838,-0.06820753370534252,0.3449195211509183,-0.0709184855222702,0.007976291701197624,-0.02468710020184517,0.009742952883243561,-0.007719576358795166,0.01075279712677002,XArbitraryZVertical,0.1708913315382536,-0.03659177051531657,-0.02310499797807149,0.9843390852170711,-0.06414052844047546,-0.3381209373474121,-0.93891441822052,0,0,0,-1,-1,14654.606497,unknown,2,2021-04-05 21:19:52.106 -0400,2021-04-05 19:23:45.401 -0400,642,1.416612,0,0,471.0333,0,0,2021-04-05 21:19:49.536 -0400,639364799.8288157,0,-2.21,98.19299,1,0.7
2021-04-05 21:20:00.103 -0400,0,0,0,0,0,0,0,0,0,14662.596399625,-0.064849853515625,-0.3399505615234375,-0.939208984375,14662.586359625,-0.03436867268878226,-0.06948109863968144,0.3432801892400371,0.04131804779171944,-0.06340570002794266,0.03088539838790894,-0.002786360681056976,-0.005921095609664917,-0.00588303804397583,XArbitraryZVertical,0.1700822340648186,-0.03715127632101555,-0.02285234581386399,0.9844641341273819,-0.06537464261054993,-0.3365777134895325,-0.9393836259841919,0,0,0,-1,-1,14654.606497,unknown,2,2021-04-05 21:19:52.106 -0400,2021-04-05 19:23:45.401 -0400,642,1.416612,0,0,471.0333,0,0,2021-04-05 21:19:49.536 -0400,639364799.8288157,0,-2.21,98.19299,1,0.7
2021-04-05 21:20:00.134 -0400,0,0,0,0,0,0,0,0,0,14662.631597625,-0.0635223388671875,-0.345550537109375,-0.94061279296875,14662.616510625,-0.0337386764841244,-0.07032569594296721,0.3441533723571069,-0.0359513945877552,0.02006402984261513,0.01009749621152878,-0.001037105917930603,-0.004626005887985229,0.003869175910949707,XArbitraryZVertical,0.1705142687291085,-0.03751806319390515,-0.02262793009318814,0.9843806794716921,-0.0661473423242569,-0.337399810552597,-0.9390345811843872,0,0,0,-1,-1,14654.606497,unknown,2,2021-04-05 21:19:52.106 -0400,2021-04-05 19:23:45.401 -0400,642,1.416612,0,0,471.0333,0,0,2021-04-05 21:19:49.536 -0400,639364799.8288157,0,-2.21,98.19299,1,0.7
2021-04-05 21:20:00.173 -0400,0,0,0,0,0,0,0,0,0,14662.666787875,-0.0589599609375,-0.335906982421875,-0.941070556640625,14662.646676875,-0.03426715053287339,-0.06897723026766567,0.3421353095235048,-0.04295146837830544,0.02135449647903442,-0.01540659926831722,0.0003373771905899048,-0.008845746517181396,-0.003086090087890625,XArbitraryZVertical,0.1695261681200273,-0.03688832956004634,-0.02274174815118546,0.984572461150835,-0.06492782384157181,-0.3354994058609009,-0.9398002624511719,0,0,0,-1,-1,14654.606497,unknown,2,2021-04-05 21:19:52.106 -0400,2021-04-05 19:23:45.401 -0400,642,1.416612,0,0,471.0333,0,0,2021-04-05 21:19:49.536 -0400,639364799.8288157,0,-2.21,98.19299,1,0.7
2021-04-05 21:20:00.204 -0400,0,0,0,0,0,0,0,0,0,14662.701955875,-0.063140869140625,-0.3383636474609375,-0.9242401123046875,14662.676828875,-0.03421069668853099,-0.06888023758035172,0.3427364258229209,0.0506340004503727,-0.02252026274800301,0.01273597404360771,0.005862817168235779,0.0001585781574249268,-0.001465320587158203,XArbitraryZVertical,0.1698242771477391,-0.03683909371004555,-0.02271505454950468,0.9845235914536944,-0.06482277810573578,-0.3360656201839447,-0.939605176448822,0,0,0,-1,-1,14654.606497,unknown,2,2021-04-05 21:19:52.106 -0400,2021-04-05 19:23:45.401 -0400,642,1.416612,0,0,471.0333,0,0,2021-04-05 21:19:49.536 -0400,639364799.8288157,0,-2.21,98.19299,1,0.7
2021-04-05 21:20:00.283 -0400,0,0,0,0,0,0,0,0,0,14662.737191875,-0.064727783203125,-0.345001220703125,-0.9249267578125,14662.707010875,-0.03359632254614466,-0.06965978364629279,0.3429809666356309,-0.03923318535089493,-0.003347735852003098,0.02465123869478703,0.004132874310016632,0.0001142323017120361,0.01543062925338745,XArbitraryZVertical,0.1699472545992129,-0.03717196544149354,-0.02248266440904677,0.9844950941201032,-0.06554950028657913,-0.3362959325313568,-0.9394723773002625,0,0,0,-1,-1,14654.606497,unknown,2,2021-04-05 21:19:52.106 -0400,2021-04-05 19:23:45.401 -0400,642,1.416612,0,0,471.0333,0,0,2021-04-05 21:19:49.536 -0400,639364799.8288157,0,-2.21,98.19299,1,0.7
2021-04-05 21:20:00.327 -0400,0,0,0,0,0,0,0,0,0,14662.772359875,-0.0592193603515625,-0.3474578857421875,-0.91607666015625,14662.737191875,-0.03347225297939608,-0.0698559993126814,0.3425949111738951,-0.006618216633796692,-0.009677290916442871,-0.01875800453126431,-7.219612598419189e-06,-0.01457735896110535,0.01360934972763062,XArbitraryZVertical,0.1697572604252192,-0.03725597187215103,-0.02243216959586167,0.9845259809129827,-0.06574289500713348,-0.3359323441982269,-0.9395889043807983,0,0,0,-1,-1,14654.606497,unknown,2,2021-04-05 21:19:52.106 -0400,2021-04-05 19:23:45.401 -0400,642,1.416612,0,0,471.0333,0,0,2021-04-05 21:19:49.536 -0400,639364799.8288157,0,-2.21,98.19299,1,0.7
2021-04-05 21:20:00.332 -0400,0,0,0,0,0,0,0,0,0,14662.807565875,-0.0590667724609375,-0.350555419921875,-0.929962158203125,14662.797525875,-0.03536296207240981,-0.06932748068572243,0.3385485988563738,-0.1337541192770004,-0.03632137924432755,-0.04926428198814392,0.008989222347736359,-0.01584306359291077,0.02251487970352173,XArbitraryZVertical,0.1677355437551061,-0.03713292006067428,-0.02325500219114935,0.9848579689616469,-0.06533992290496826,-0.332118421792984,-0.940971851348877,0,0,0,-1,-1,14654.606497,unknown,2,2021-04-05 21:19:52.106 -0400,2021-04-05 19:23:45.401 -0400,642,1.416612,0,0,471.0333,0,0,2021-04-05 21:19:49.536 -0400,639364799.8288157,0,-2.21,98.19299,1,0.7
2021-04-05 21:20:00.345 -0400,0,0,0,0,0,0,0,0,0,14662.842763875,-0.044219970703125,-0.3337554931640625,-0.929412841796875,14662.827676875,-0.03799226773025237,-0.06949930834961386,0.3360954039551101,-0.08074096590280533,-0.02000429295003414,-0.09792217612266541,0.004263438284397125,-0.01992803812026978,0.01141172647476196,XArbitraryZVertical,0.1664760908429738,-0.03742220918089558,-0.02452603992766511,0.9850298753261301,-0.06555798649787903,-0.3298034965991974,-0.9417705535888672,0,0,0,-1,-1,14654.606497,unknown,2,2021-04-05 21:19:52.106 -0400,2021-04-05 19:23:45.401 -0400,642,1.416612,0,0,471.0333,0,0,2021-04-05 21:19:49.536 -0400,639364799.8288157,0,-2.21,98.19299,1,0.7
2021-04-05 21:20:00.384 -0400,0,0,0,0,0,0,0,0,0,14662.877969875,-0.0441131591796875,-0.3186187744140625,-0.9476776123046875,14662.857858875,-0.041546055344278,-0.06899864756942176,0.3338531218632507,-0.1476795673370361,-0.01923306286334991,-0.1022016853094101,0.02300778776407242,-0.001370012760162354,0.01268333196640015,XArbitraryZVertical,0.1653112297497245,-0.03745488845225614,-0.02620039718131185,0.9851816024256701,-0.06513729691505432,-0.3276858329772949,-0.9425386786460876,0,0,0,-1,-1,14654.606497,unknown,2,2021-04-05 21:19:52.106 -0400,2021-04-05 19:23:45.401 -0400,642,1.416612,0,0,471.0333,0,0,2021-04-05 21:19:49.536 -0400,639364799.8288157,0,-2.21,98.19299,1,0.7
2021-04-05 21:20:00.415 -0400,0,0,0,0,0,0,0,0,0,14662.913167875,-0.0391998291015625,-0.3192138671875,-0.952423095703125,14662.888040875,-0.04544051875701478,-0.0683551579281638,0.3295492560485721,-0.1802366077899933,-0.01410475559532642,-0.1068246960639954,0.02051334828138351,0.004997760057449341,-0.003698885440826416,XArbitraryZVertical,0.1631261156763677,-0.03742369832691551,-0.02800111482105399,0.9854975113775043,-0.06462650001049042,-0.3236165642738342,-0.9439786672592163,0,0,0,-1,-1,14654.606497,unknown,2,2021-04-05 21:19:52.106 -0400,2021-04-05 19:23:45.401 -0400,642,1.416612,0,0,471.0333,0,0,2021-04-05 21:19:49.536 -0400,639364799.8288157,0,-2.21,98.19299,1,0.7
2021-04-05 21:20:00.455 -0400,0,0,0,0,0,0,0,0,0,14662.948373875,-0.067962646484375,-0.3330230712890625,-0.927490234375,14662.918191875,-0.04878948270295948,-0.06709220811295487,0.3263400682332669,-0.1030363887548447,0.00620026933029294,-0.07446810603141785,0.02451734989881516,0.001318752765655518,-0.008552849292755127,XArbitraryZVertical,0.1614999941362376,-0.03704469428554612,-0.02950160281463179,0.9857358243123109,-0.06350354850292206,-0.3205784261226654,-0.9450908899307251,0,0,0,-1,-1,14654.606497,unknown,2,2021-04-05 21:19:52.106 -0400,2021-04-05 19:23:45.401 -0400,642,1.416612,0,0,471.0333,0,0,2021-04-05 21:19:49.536 -0400,639364799.8288157,0,-2.21,98.19299,1,0.7
2021-04-05 21:20:00.485 -0400,0,0,0,0,0,0,0,0,0,14662.983541875,-0.0887603759765625,-0.335845947265625,-0.9396820068359375,14662.948373875,-0.05120090319609863,-0.06531086912403397,0.3244605940756253,-0.08310045301914215,0.02929442375898361,-0.0713241770863533,0.007858283817768097,-0.006443589925765991,0.01422250270843506,XArbitraryZVertical,0.1605558238247722,-0.03634268516440538,-0.0305199042025873,0.9858851984684948,-0.0618591345846653,-0.3187975585460663,-0.9458020925521851,0,0,0,-1,-1,14654.606497,unknown,2,2021-04-05 21:19:52.106 -0400,2021-04-05 19:23:45.401 -0400,642,1.416612,0,0,471.0333,0,0,2021-04-05 21:19:49.536 -0400,639364799.8288157,0,-2.21,98.19299,1,0.7
2021-04-05 21:20:00.525 -0400,0,0,0,0,0,0,0,0,0,14663.018747875,-0.0634613037109375,-0.3241729736328125,-0.939422607421875,14663.008706875,-0.06297262647082975,-0.05827977297217021,0.3176765141139529,-0.1169751435518265,0.03786101192235947,-0.2454550415277481,-0.02209075167775154,-0.01402533054351807,0.0007649064064025879,XArbitraryZVertical,0.1571199911839444,-0.03373202192121072,-0.03567777217170531,0.986358289850683,-0.05533233657479286,-0.3123601675033569,-0.9483509063720703,0,0,0,-1,-1,14654.606497,unknown,2,2021-04-05 21:19:52.106 -0400,2021-04-05 19:23:45.401 -0400,642,1.416612,0,0,471.0333,0,0,2021-04-05 21:19:49.536 -0400,639364799.8288157,0,-2.21,98.19299,1,0.7
2021-04-05 21:20:00.555 -0400,0,0,0,0,0,0,0,0,0,14663.053945875,-0.0774383544921875,-0.34991455078125,-0.8876495361328125,14663.038858875,-0.06985254016155777,-0.05452510576189241,0.3159261964663823,-0.05166954547166824,0.06372993439435959,-0.1609280556440353,-0.009661465883255005,-0.01719921827316284,0.0280148983001709,XArbitraryZVertical,0.1562126086060828,-0.0323943599731177,-0.03875704308578486,0.9864310762147136,-0.0518009290099144,-0.3106969594955444,-0.9490964412689209,0,0,0,-1,-1,14654.606497,unknown,2,2021-04-05 21:19:52.106 -0400,2021-04-05 19:23:45.401 -0400,642,1.416612,0,0,471.0333,0,0,2021-04-05 21:19:49.536 -0400,639364799.8288157,0,-2.21,98.19299,1,0.7
2021-04-05 21:20:00.595 -0400,0,0,0,0,0,0,0,0,0,14663.089151875,-0.1067962646484375,-0.3946685791015625,-0.9154510498046875,14663.069040875,-0.07326381880164826,-0.05257417018126619,0.3162215121108799,-0.06222473084926605,0.06808217614889145,-0.1182532012462616,-0.03481818735599518,-0.04343831539154053,0.06317877769470215,XArbitraryZVertical,0.1563421985794068,-0.03170330357460852,-0.04029011679386923,0.9863715372056966,-0.04994438216090202,-0.3109776377677917,-0.9491040110588074,0,0,0,-1,-1,14654.606497,unknown,2,2021-04-05 21:19:52.106 -0400,2021-04-05 19:23:45.401 -0400,642,1.416612,0,0,471.0333,0,0,2021-04-05 21:19:49.536 -0400,639364799.8288157,0,-2.21,98.19299,1,0.7
2021-04-05 21:20:00.625 -0400,0,0,0,0,0,0,0,0,0,14663.124349875,-0.0761871337890625,-0.3814544677734375,-0.9468994140625,14663.099222875,-0.07754553369780846,-0.04961122792101626,0.3148083353125583,-0.07939501106739044,0.06861280649900436,-0.1807482242584229,-0.0596424825489521,-0.08503437042236328,0.03423482179641724,XArbitraryZVertical,0.1556394406098661,-0.03055246533846723,-0.04215715135759317,0.986440906086812,-0.0471537709236145,-0.3096342384815216,-0.94968581199646,0,0,0,-1,-1,14654.606497,unknown,2,2021-04-05 21:19:52.106 -0400,2021-04-05 19:23:45.401 -0400,642,1.416612,0,0,471.0333,0,0,2021-04-05 21:19:49.536 -0400,639364799.8288157,0,-2.21,98.19299,1,0.7
2021-04-05 21:20:00.667 -0400,0,0,0,0,0,0,0,0,0,14663.159555875,-0.0688018798828125,-0.3891448974609375,-0.9522857666015625,14663.129373875,-0.08367507918384011,-0.04746008379870768,0.3123832915523952,-0.1482765823602676,-0.01898794993758202,-0.1873046904802322,-0.03461144119501114,-0.07456958293914795,0.008942961692810059,XArbitraryZVertical,0.1543971261501751,-0.02992286889945835,-0.04499236367839712,0.9865301993149846,-0.04514624550938606,-0.3073274493217468,-0.9505323171615601,0,0,0,-1,-1,14654.606497,unknown,2,2021-04-05 21:19:52.106 -0400,2021-04-05 19:23:45.401 -0400,642,1.416612,0,0,471.0333,0,0,2021-04-05 21:19:49.536 -0400,639364799.8288157,0,-2.21,98.19299,1,0.7
2021-04-05 21:20:00.697 -0400,0,0,0,0,0,0,0,0,0,14663.194722875,-0.046966552734375,-0.3937835693359375,-0.94561767578125,14663.159555875,-0.08919836795964424,-0.04869380588064216,0.3105232540013064,-0.108948715031147,-0.07987482100725174,-0.1841759234666824,-0.02569008991122246,-0.08061257004737854,-0.0006149411201477051,XArbitraryZVertical,0.1533667056257048,-0.03092017027411979,-0.04779590134291448,0.9865283046916633,-0.04634664580225945,-0.3055568933486938,-0.9510452151298523,0,0,0,-1,-1,14654.606497,unknown,2,2021-04-05 21:19:52.106 -0400,2021-04-05 19:23:45.401 -0400,642,1.416612,0,0,471.0333,0,0,2021-04-05 21:19:49.536 -0400,639364799.8288157,0,-2.21,98.19299,1,0.7
2021-04-05 21:20:00.736 -0400,0,0,0,0,0,0,0,0,0,14663.229959875,-0.0329742431640625,-0.3965911865234375,-0.925079345703125,14663.219888875,-0.09938456550095846,-0.04797761282794982,0.3101269266512933,-0.08692654222249985,0.1010806113481522,-0.1277938932180405,0.003755420446395874,-0.08507934212684631,0.02029085159301758,XArbitraryZVertical,0.1530306182429888,-0.03133870579137189,-0.05276170905556393,0.9863141984538779,-0.04567130655050278,-0.3051795065402985,-0.9511990547180176,0,0,0,-1,-1,14654.606497,unknown,2,2021-04-05 21:19:52.106 -0400,2021-04-05 19:23:45.401 -0400,642,1.416612,0,0,471.0333,0,0,2021-04-05 21:19:49.536 -0400,639364799.8288157,0,-2.21,98.19299,1,0.7
2021-04-05 21:20:00.819 -0400,0,0,0,0,0,0,0,0,0,14663.265126875,-0.0071868896484375,-0.388763427734375,-0.9443817138671875,14663.250070875,-0.1027776084326709,-0.04451828477457397,0.3103253853046193,-0.07325351238250732,0.06836478412151337,-0.1048413068056107,0.02037466689944267,-0.09136006236076355,0.02868342399597168,XArbitraryZVertical,0.1531690528237598,-0.02989709109168193,-0.05417164473606171,0.9862610653821069,-0.04237783327698708,-0.3053684830665588,-0.9512907862663269,0,0,0,-1,-1,14654.606497,unknown,2,2021-04-05 21:19:52.106 -0400,2021-04-05 19:23:45.401 -0400,642,1.416612,0,0,471.0333,0,0,2021-04-05 21:19:49.536 -0400,639364799.8288157,0,-2.21,98.19299,1,0.7
2021-04-05 21:20:00.824 -0400,0,0,0,0,0,0,0,0,0,14663.300332875,-0.030120849609375,-0.39263916015625,-0.96820068359375,14663.280221875,-0.1048863357849296,-0.04322593973057397,0.3099624819332144,-0.07840956002473831,0.001095420680940151,-0.008058255538344383,0.0330355204641819,-0.08367952704429626,0.005273222923278809,XArbitraryZVertical,0.1529940753059986,-0.02941251731368703,-0.05511012869462761,0.9862507769726061,-0.0411531887948513,-0.3050228953361511,-0.9514554142951965,0,0,0,-1,-1,14654.606497,unknown,2,2021-04-05 21:19:52.106 -0400,2021-04-05 19:23:45.401 -0400,642,1.416612,0,0,471.0333,0,0,2021-04-05 21:19:49.536 -0400,639364799.8288157,0,-2.21,98.19299,1,0.7
2021-04-05 21:20:00.836 -0400,0,0,0,0,0,0,0,0,0,14663.335530875,-0.0367889404296875,-0.386627197265625,-0.9657440185546875,14663.310403875,-0.104074268445537,-0.04268761951471309,0.3118609685011699,0.02815940603613853,0.03621114417910576,0.06323562562465668,0.01049536839127541,-0.08580887317657471,-0.017303466796875,XArbitraryZVertical,0.1539572020386312,-0.02913056236137538,-0.05468083277331433,0.9861331562207766,-0.04061621055006981,-0.3068303763866425,-0.9508971571922302,0,0,0,-1,-1,14654.606497,unknown,2,2021-04-05 21:19:52.106 -0400,2021-04-05 19:23:45.401 -0400,642,1.416612,0,0,471.0333,0,0,2021-04-05 21:19:49.536 -0400,639364799.8288157,0,-2.21,98.19299,1,0.7
2021-04-05 21:20:00.877 -0400,0,0,0,0,0,0,0,0,0,14663.370736875,-0.047332763671875,-0.3700103759765625,-0.9899749755859375,14663.340555875,-0.1014624844898246,-0.04024084945421388,0.3159251990329296,0.08373900502920151,0.09255871176719666,0.1300794929265976,-0.001098170876502991,-0.07907456159591675,-0.01746898889541626,XArbitraryZVertical,0.1560647954437967,-0.02781833723869438,-0.05322879584222327,0.9859191508559008,-0.03823897987604141,-0.310696005821228,-0.9497398138046265,0,0,0,-1,-1,14654.606497,unknown,2,2021-04-05 21:19:52.106 -0400,2021-04-05 19:23:45.401 -0400,642,1.416612,0,0,471.0333,0,0,2021-04-05 21:19:49.536 -0400,639364799.8288157,0,-2.21,98.19299,1,0.7
2021-04-05 21:20:00.908 -0400,0,0,0,0,0,0,0,0,0,14663.405934875,-0.0460968017578125,-0.3525543212890625,-0.990478515625,14663.400918875,-0.0887235489561779,-0.03614278468742427,0.3230901149284713,0.1383958458900452,0.08004329353570938,0.2983357012271881,-0.01306750252842903,-0.05316826701164246,-0.0627058744430542,XArbitraryZVertical,0.1598679169100492,-0.02494937443606137,-0.04666631928441163,0.9857190728505174,-0.03426525369286537,-0.3174982964992523,-0.9476395845413208,0,0,0,-1,-1,14654.606497,unknown,2,2021-04-05 21:19:52.106 -0400,2021-04-05 19:23:45.401 -0400,642,1.416612,0,0,471.0333,0,0,2021-04-05 21:19:49.536 -0400,639364799.8288157,0,-2.21,98.19299,1,0.7
2021-04-05 21:20:00.947 -0400,0,0,0,0,0,0,0,0,0,14663.441140875,-0.0701751708984375,-0.3679656982421875,-0.9217987060546875,14663.431070875,-0.0762142702521191,-0.03732566641453468,0.331447705177866,0.3062978684902191,0.09445800632238388,0.468380331993103,-0.01659395545721054,-0.02070289850234985,-0.01819062232971191,XArbitraryZVertical,0.1641165986721066,-0.02467648241384439,-0.04064572043919879,0.9852942802507128,-0.03528591990470886,-0.3254122734069824,-0.9449136257171631,0,0,0,-1,-1,14654.606497,unknown,2,2021-04-05 21:19:52.106 -0400,2021-04-05 19:23:45.401 -0400,642,1.416612,0,0,471.0333,0,0,2021-04-05 21:19:49.536 -0400,639364799.8288157,0,-2.21,98.19299,1,0.7
2021-04-05 21:20:00.978 -0400,0,0,0,0,0,0,0,0,0,14663.476308875,-0.093536376953125,-0.3593292236328125,-0.9276885986328125,14663.461252875,-0.0601706292276204,-0.04077116984686956,0.3413343031211477,0.307490736246109,0.0007109828293323517,0.4751982986927032,-0.04194438457489014,-0.03346514701843262,0.02969110012054443,XArbitraryZVertical,0.1691234656286401,-0.02518679055712617,-0.03309807517306162,0.984716832709837,-0.03840839117765427,-0.3347447216510773,-0.9415257573127747,0,0,0,-1,-1,14654.606497,unknown,2,2021-04-05 21:19:52.106 -0400,2021-04-05 19:23:45.401 -0400,642,1.416612,0,0,471.0333,0,0,2021-04-05 21:19:49.536 -0400,639364799.8288157,0,-2.21,98.19299,1,0.7
2021-04-05 21:20:01.018 -0400,0,0,0,0,0,0,0,0,0,14663.511514875,-0.101715087890625,-0.3448944091796875,-0.999114990234375,14663.491403875,-0.04639873826875093,-0.04641314370486192,0.3468107423294526,0.04988660663366318,-0.06644748896360397,0.3445151150226593,-0.05222160369157791,-0.01910865306854248,-0.0006909966468811035,XArbitraryZVertical,0.1719145631019385,-0.02685166708112316,-0.02684581512273649,0.9843798313215976,-0.04363410547375679,-0.3399001657962799,-0.9394487142562866,0,0,0,-1,-1,14654.606497,unknown,2,2021-04-05 21:19:52.106 -0400,2021-04-05 19:23:45.401 -0400,642,1.416612,0,0,471.0333,0,0,2021-04-05 21:19:49.536 -0400,639364799.8288157,0,-2.21,98.19299,1,0.7
2021-04-05 21:20:01.048 -0400,0,0,0,0,0,0,0,0,0,14663.546712875,-0.0976715087890625,-0.3097076416015625,-0.970916748046875,14663.521585875,-0.03787415048789973,-0.05244359644998154,0.3447353472284672,-0.09570388495922089,-0.1035876646637917,0.2172450721263885,-0.05237963423132896,-0.006946861743927002,-0.05924397706985474,XArbitraryZVertical,0.170936582330119,-0.02907232506655992,-0.02314504610274254,0.9845810708970892,-0.04933544993400574,-0.3379476070404053,-0.9398709535598755,0,0,0,-1,-1,14654.606497,unknown,2,2021-04-05 21:19:52.106 -0400,2021-04-05 19:23:45.401 -0400,642,1.416612,0,0,471.0333,0,0,2021-04-05 21:19:49.536 -0400,639364799.8288157,0,-2.21,98.19299,1,0.7
2021-04-05 21:20:01.089 -0400,0,0,0,0,0,0,0,0,0,14663.581918875,-0.09820556640625,-0.30621337890625,-0.951416015625,14663.551767875,-0.0301199689750961,-0.05884484193153643,0.3450913582635066,0.1086526736617088,-0.06648200750350952,0.2348230630159378,-0.04246517270803452,0.02405834197998047,-0.04309767484664917,XArbitraryZVertical,0.1711605717423368,-0.03156250033391058,-0.01987963271792616,0.9845367586591797,-0.05534366518259048,-0.3382826447486877,-0.9394157528877258,0,0,0,-1,-1,14654.606497,unknown,2,2021-04-05 21:19:52.106 -0400,2021-04-05 19:23:45.401 -0400,642,1.416612,0,0,471.0333,0,0,2021-04-05 21:19:49.536 -0400,639364799.8288157,0,-2.21,98.19299,1,0.7
2021-04-05 21:20:01.119 -0400,0,0,0,0,0,0,0,0,0,14663.617116875,-0.0678558349609375,-0.292449951171875,-0.9455413818359375,14663.581918875,-0.02287737174235226,-0.06393877942603371,0.3475297105270311,0.02607809007167816,-0.01206149719655514,0.1801108717918396,-0.04386749863624573,0.0320587158203125,-0.009824395179748535,XArbitraryZVertical,0.1724319513660158,-0.03345713197145096,-0.01678636412434503,0.9843100166927128,-0.06007536873221397,-0.3405762314796448,-0.9382956624031067,0,0,0,-1,-1,14654.606497,unknown,2,2021-04-05 21:19:52.106 -0400,2021-04-05 19:23:45.401 -0400,642,1.416612,0,0,471.0333,0,0,2021-04-05 21:19:49.536 -0400,639364799.8288157,0,-2.21,98.19299,1,0.7
2021-04-05 21:20:01.159 -0400,0,0,0,0,0,0,0,0,0,14663.652338,-0.0518035888671875,-0.293243408203125,-0.90911865234375,14663.642251875,-0.009249345095353918,-0.06748365756605738,0.3522705074311789,0.2194910198450089,0.0476265586912632,0.2221046984195709,0.001874916255474091,0.05009257793426514,0.007591843605041504,XArbitraryZVertical,0.1749707261876715,-0.03402302349107529,-0.0104617713875318,0.9839299973462775,-0.06329154223203659,-0.3450297713279724,-0.9364553689956665,0,0,0,-1,-1,14654.606497,unknown,2,2021-04-05 21:19:52.106 -0400,2021-04-05 19:23:45.401 -0400,642,1.416612,0,0,471.0333,0,0,2021-04-05 21:19:49.536 -0400,639364799.8288157,0,-2.21,98.19299,1,0.7
2021-04-05 21:20:01.189 -0400,0,0,0,0,0,0,0,0,0,14663.687505,-0.030792236328125,-0.2792510986328125,-0.944671630859375,14663.672449,-0.001718546616616485,-0.07194917373422859,0.3569013213285039,0.1630448997020721,-0.06693988293409348,0.1925203502178192,0.02072621136903763,0.06047779321670532,0.02747052907943726,XArbitraryZVertical,0.1773597180756589,-0.03554808323911952,-0.007229371442436583,0.9834773260399239,-0.06735707074403763,-0.3493725061416626,-0.93455970287323,0,0,0,-1,-1,14654.606497,unknown,2,2021-04-05 21:19:52.106 -0400,2021-04-05 19:23:45.401 -0400,642,1.416612,0,0,471.0333,0,0,2021-04-05 21:19:49.536 -0400,639364799.8288157,0,-2.21,98.19299,1,0.7
2021-04-05 21:20:01.229 -0400,0,0,0,0,0,0,0,0,0,14663.722742,-0.0728759765625,-0.29296875,-0.971893310546875,14663.702631,0.004852679589045278,-0.07821189254052005,0.3584462691711489,0.08340385556221008,-0.1115824952721596,0.1932665109634399,0.04312177747488022,0.07231619954109192,-0.01740837097167969,XArbitraryZVertical,0.1782217158041604,-0.03803744181945977,-0.004583782607219594,0.9832442825326454,-0.07316633313894272,-0.3508196771144867,-0.9335803389549255,0,0,0,-1,-1,14654.606497,unknown,2,2021-04-05 21:19:52.106 -0400,2021-04-05 19:23:45.401 -0400,642,1.416612,0,0,471.0333,0,0,2021-04-05 21:19:49.536 -0400,639364799.8288157,0,-2.21,98.19299,1,0.7
2021-04-05 21:20:01.285 -0400,0,0,0,0,0,0,0,0,0,14663.75791,-0.0793914794921875,-0.3135986328125,-0.9149627685546875,14663.732782,0.01147297129635746,-0.08262840704098198,0.3596973966304614,0.1531642377376556,-0.006476336158812046,0.1625982820987701,0.004376515746116638,0.0590222179889679,-0.03908336162567139,XArbitraryZVertical,0.1789582324150742,-0.03961033901446968,-0.001748976127086677,0.9830574760250055,-0.07725249230861664,-0.3519909977912903,-0.9328099489212036,0,0,0,-1,-1,14654.606497,unknown,2,2021-04-05 21:19:52.106 -0400,2021-04-05 19:23:45.401 -0400,642,1.416612,0,0,471.0333,0,0,2021-04-05 21:19:49.536 -0400,639364799.8288157,0,-2.21,98.19299,1,0.7
2021-04-05 21:20:01.326 -0400,0,0,0,0,0,0,0,0,0,14663.793116,-0.02734375,-0.3113250732421875,-0.9047698974609375,14663.762964,0.0143007414584229,-0.08216903774623333,0.3620681264505156,0.09055031090974808,0.05184844881296158,0.008926570415496826,-0.007549531757831573,0.03971007466316223,0.007816731929779053,XArbitraryZVertical,0.1801791983117672,-0.03911441411390262,-0.0003673440561570887,0.9828556734927021,-0.07675527036190033,-0.3542090356349945,-0.9320110678672791,0,0,0,-1,-1,14654.606497,unknown,2,2021-04-05 21:19:52.106 -0400,2021-04-05 19:23:45.401 -0400,642,1.416612,0,0,471.0333,0,0,2021-04-05 21:19:49.536 -0400,639364799.8288157,0,-2.21,98.19299,1,0.7
2021-04-05 21:20:01.334 -0400,0,0,0,0,0,0,0,0,0,14663.828314,-0.0082550048828125,-0.3113861083984375,-0.9061737060546875,14663.793116,0.01261229544719435,-0.07943671908926336,0.360409379822953,-0.03464888408780098,-0.0007748156785964966,-0.0662456750869751,0.03320881724357605,0.03762432932853699,0.03096151351928711,XArbitraryZVertical,0.1793323825166639,-0.03793479295099098,-0.0009176477252332757,0.983056474576041,-0.07425495982170105,-0.3526573479175568,-0.9328017234802246,0,0,0,-1,-1,14654.606497,unknown,2,2021-04-05 21:19:52.106 -0400,2021-04-05 19:23:45.401 -0400,642,1.416612,0,0,471.0333,0,0,2021-04-05 21:19:49.536 -0400,639364799.8288157,0,-2.21,98.19299,1,0.7
2021-04-05 21:20:01.370 -0400,0,0,0,0,0,0,0,0,0,14663.86352,-0.003204345703125,-0.32684326171875,-0.921875,14663.853479,0.01148246401076273,-0.08134636184716196,0.3550724629514372,-0.1047746539115906,0.0008111582137644291,0.009684622287750244,0.06982507556676865,0.02939045429229736,0.02892690896987915,XArbitraryZVertical,0.1766858835706903,-0.03900908873247258,-0.00153470596283976,0.9834927583615355,-0.07618799060583115,-0.3476583063602448,-0.9345207810401917,0,0,0,-1,-1,14654.606497,unknown,2,2021-04-05 21:19:52.106 -0400,2021-04-05 19:23:45.401 -0400,642,1.416612,0,0,471.0333,0,0,2021-04-05 21:19:49.536 -0400,639364799.8288157,0,-2.21,98.19299,1,0.7
2021-04-05 21:20:01.400 -0400,0,0,0,0,0,0,0,0,0,14663.898718,0.003204345703125,-0.3223876953125,-0.970306396484375,14663.883631,0.01071527415444061,-0.07891881624383273,0.3493826600402378,-0.2351538836956024,0.05835731700062752,0.005397599190473557,0.07498945295810699,0.01477262377738953,0.0007162094116210938,XArbitraryZVertical,0.1738745230983072,-0.03791775345803584,-0.001584368794147833,0.9840362818270953,-0.07407392561435699,-0.3423178195953369,-0.9366598129272461,0,0,0,-1,-1,14654.606497,unknown,2,2021-04-05 21:19:52.106 -0400,2021-04-05 19:23:45.401 -0400,642,1.416612,0,0,471.0333,0,0,2021-04-05 21:19:49.536 -0400,639364799.8288157,0,-2.21,98.19299,1,0.7
2021-04-05 21:20:01.440 -0400,0,0,0,0,0,0,0,0,0,14663.933924,-0.000152587890625,-0.3254241943359375,-0.9690399169921875,14663.913813,0.01087537774218569,-0.07547218720370226,0.3428467802640298,-0.1710586100816727,0.05115524679422379,0.08319154381752014,0.07386575639247894,0.01410225033760071,-0.03539729118347168,XArbitraryZVertical,0.1706632291937461,-0.03624669737178591,-0.001081443241849158,0.9846618884228762,-0.07101235538721085,-0.3361695408821106,-0.9391204714775085,0,0,0,-1,-1,14654.606497,unknown,2,2021-04-05 21:19:52.106 -0400,2021-04-05 19:23:45.401 -0400,642,1.416612,0,0,471.0333,0,0,2021-04-05 21:19:49.536 -0400,639364799.8288157,0,-2.21,98.19299,1,0.7
2021-04-05 21:20:01.470 -0400,0,0,0,0,0,0,0,0,0,14663.969091,-0.02288818359375,-0.3227081298828125,-0.9411163330078125,14663.943964,0.01371188327965124,-0.07330032203297009,0.339082104983423,-0.09437557309865952,0.05028498917818069,0.1596522629261017,0.06891215592622757,0.007197350263595581,-0.02851188182830811,XArbitraryZVertical,0.1688603347907099,-0.03495972883461858,0.0005706005835074639,0.9850196568128308,-0.06906474381685257,-0.3326216042041779,-0.9405280351638794,0,0,0,-1,-1,14654.606497,unknown,2,2021-04-05 21:19:52.106 -0400,2021-04-05 19:23:45.401 -0400,642,1.416612,0,0,471.0333,0,0,2021-04-05 21:19:49.536 -0400,639364799.8288157,0,-2.21,98.19299,1,0.7
2021-04-05 21:20:01.511 -0400,0,0,0,0,0,0,0,0,0,14664.004297,-0.0459747314453125,-0.326690673828125,-0.9573516845703125,14663.974146,0.01912204088174084,-0.07158958308148879,0.3363477176956588,-0.06375499814748764,0.04992615804076195,0.2256552577018738,0.05004913359880447,0.009362906217575073,-0.002268671989440918,XArbitraryZVertical,0.1676047133742844,-0.03368135715447908,0.003430093170792392,0.9852727979220999,-0.06752044707536697,-0.3300416767597198,-0.9415484666824341,0,0,0,-1,-1,14654.606497,unknown,2,2021-04-05 21:19:52.106 -0400,2021-04-05 19:23:45.401 -0400,642,1.416612,0,0,471.0333,0,0,2021-04-05 21:19:49.536 -0400,639364799.8288157,0,-2.21,98.19299,1,0.7
2021-04-05 21:20:01.541 -0400,0,0,0,0,0,0,0,0,0,14664.039495,-0.059844970703125,-0.3332061767578125,-0.957916259765625,14664.034479,0.02998282592946027,-0.06981264654962986,0.3332449895427886,0.004512443672865629,0.005838222801685333,0.1703710705041885,0.009094662964344025,0.001351296901702881,-0.01369112730026245,XArbitraryZVertical,0.1662488417318909,-0.03192727650846989,0.008986753551106027,0.9855258423407305,-0.06591838598251343,-0.3271112143993378,-0.9426839351654053,0,0,0,-1,-1,14654.606497,unknown,2,2021-04-05 21:19:52.106 -0400,2021-04-05 19:23:45.401 -0400,642,1.416612,0,0,471.0333,0,0,2021-04-05 21:19:49.536 -0400,639364799.8288157,0,-2.21,98.19299,1,0.7
2021-04-05 21:20:01.581 -0400,0,0,0,0,0,0,0,0,0,14664.074701,-0.0869140625,-0.3347015380859375,-0.93084716796875,14664.064661,0.03415747545633196,-0.07069824404250093,0.3338967912928919,0.03206006065011024,-0.05466523393988609,0.1126185432076454,-0.002857215702533722,-0.004212647676467896,0.0008077621459960938,XArbitraryZVertical,0.1666410811250927,-0.03200917017496648,0.010957920052333,0.9854370662358862,-0.06673812121152878,-0.3277270793914795,-0.9424123167991638,0,0,0,-1,-1,14654.606497,unknown,2,2021-04-05 21:19:52.106 -0400,2021-04-05 19:23:45.401 -0400,642,1.416612,0,0,471.0333,0,0,2021-04-05 21:19:49.536 -0400,639364799.8288157,0,-2.21,98.19299,1,0.7
2021-04-05 21:20:01.611 -0400,0,0,0,0,0,0,0,0,0,14664.109899,-0.08160400390625,-0.3229827880859375,-0.96209716796875,14664.094812,0.03520733436187284,-0.07235484498765134,0.3341679267093627,-0.04271764308214188,-0.0659729465842247,-0.05087723955512047,-0.02817325294017792,-0.002384841442108154,0.01568293571472168,XArbitraryZVertical,0.1668008786906827,-0.03273474811681534,0.01133192576133944,0.985381898497303,-0.06829280406236649,-0.3279832303524017,-0.9422118067741394,0,0,0,-1,-1,14654.606497,unknown,2,2021-04-05 21:19:52.106 -0400,2021-04-05 19:23:45.401 -0400,642,1.416612,0,0,471.0333,0,0,2021-04-05 21:19:49.536 -0400,639364799.8288157,0,-2.21,98.19299,1,0.7
2021-04-05 21:20:01.651 -0400,0,0,0,0,0,0,0,0,0,14664.145105,-0.0594482421875,-0.305816650390625,-0.949798583984375,14664.124994,0.03151454702794949,-0.07274068209275472,0.3324373121577101,-0.03791419789195061,-0.05358427762985229,-0.1338167786598206,-0.008237317204475403,0.007622241973876953,-0.02227669954299927,XArbitraryZVertical,0.1658894051592587,-0.03325142679472099,0.009513622322919036,0.9855377649020609,-0.068697489798069,-0.3263478577136993,-0.942750096321106,0,0,0,-1,-1,14654.606497,unknown,2,2021-04-05 21:19:52.106 -0400,2021-04-05 19:23:45.401 -0400,642,1.416612,0,0,471.0333,0,0,2021-04-05 21:19:49.536 -0400,639364799.8288157,0,-2.21,98.19299,1,0.7
2021-04-05 21:20:01.682 -0400,0,0,0,0,0,0,0,0,0,14664.180303,-0.070892333984375,-0.3305511474609375,-0.88677978515625,14664.155146,0.02771860675051047,-0.07229565289092621,0.3332848145533098,0.05630974099040031,-0.00420152535662055,-0.1041811406612396,0.008809685707092285,0.02133214473724365,-0.007294178009033203,XArbitraryZVertical,0.1662418572429842,-0.03333859740833555,0.007663909845854393,0.9854914451051037,-0.06825792789459229,-0.3271488547325134,-0.942504346370697,0,0,0,-1,-1,14654.606497,unknown,2,2021-04-05 21:19:52.106 -0400,2021-04-05 19:23:45.401 -0400,642,1.416612,0,0,471.0333,0,0,2021-04-05 21:19:49.536 -0400,639364799.8288157,0,-2.21,98.19299,1,0.7
2021-04-05 21:20:01.722 -0400,0,0,0,0,0,0,0,0,0,14664.215509,-0.0711822509765625,-0.3569183349609375,-0.8946685791015625,14664.185328,0.02515841873847863,-0.07162192536768053,0.3358650226369045,0.09631989151239395,0.04538134858012199,-0.09517563134431839,-0.0008275881409645081,0.0024680495262146,0.04679238796234131,XArbitraryZVertical,0.1674679575818713,-0.03319571192613978,0.006410126327741288,0.9852976212417561,-0.0675622969865799,-0.3295859694480896,-0.941705048084259,0,0,0,-1,-1,14654.606497,unknown,2,2021-04-05 21:19:52.106 -0400,2021-04-05 19:23:45.401 -0400,642,1.416612,0,0,471.0333,0,0,2021-04-05 21:19:49.536 -0400,639364799.8288157,0,-2.21,98.19299,1,0.7
2021-04-05 21:20:01.821 -0400,0,0,0,0,0,0,0,0,0,14664.250677,-0.0572509765625,-0.371337890625,-0.9543609619140625,14664.245661,0.01639327100310227,-0.06699060945596717,0.3362598493179094,-0.03989394754171371,-0.03927308320999146,-0.185188427567482,-0.000330805778503418,-0.04258465766906738,0.007124543190002441,XArbitraryZVertical,0.1675100812030812,-0.03164488680098598,0.002472602528788254,0.9853592434926147,-0.06319153308868408,-0.3299587368965149,-0.9418779611587524,0,0,0,-1,-1,14654.606497,unknown,2,2021-04-05 21:19:52.106 -0400,2021-04-05 19:23:45.401 -0400,642,1.416612,0,0,471.0333,0,0,2021-04-05 21:19:49.536 -0400,639364799.8288157,0,-2.21,98.19299,1,0.7
2021-04-05 21:20:01.826 -0400,0,0,0,0,0,0,0,0,0,14664.285883,-0.045654296875,-0.354827880859375,-0.958404541015625,14664.275843,0.01027976862454996,-0.06714240691042192,0.3362562362497162,-0.03826970979571342,-0.05954502522945404,-0.2083669453859329,0.00927269458770752,-0.03634724020957947,-0.01180475950241089,XArbitraryZVertical,0.1674107496197877,-0.03223158226564581,-0.0005520477033541754,0.9853600399456134,-0.06333459168672562,-0.3299553096294403,-0.9418695569038391,0,0,0,-1,-1,14654.606497,unknown,2,2021-04-05 21:19:52.106 -0400,2021-04-05 19:23:45.401 -0400,642,1.416612,0,0,471.0333,0,0,2021-04-05 21:19:49.536 -0400,639364799.8288157,0,-2.21,98.19299,1,0.7
2021-04-05 21:20:01.832 -0400,0,0,0,0,0,0,0,0,0,14664.321081,-0.0312042236328125,-0.342620849609375,-0.9960784912109375,14664.305994,0.003527872899131549,-0.06693786575911895,0.3347248274921352,-0.1290484815835953,-0.03191878646612167,-0.2087410539388657,0.02179382741451263,-0.02395355701446533,-0.02760040760040283,XArbitraryZVertical,0.1665468364412886,-0.03270140020294391,-0.003835962732959834,0.9854837413479541,-0.06317566335201263,-0.3285092711448669,-0.9423855543136597,0,0,0,-1,-1,14654.606497,unknown,2,2021-04-05 21:19:52.106 -0400,2021-04-05 19:23:45.401 -0400,642,1.416612,0,0,471.0333,0,0,2021-04-05 21:19:49.536 -0400,639364799.8288157,0,-2.21,98.19299,1,0.7
2021-04-05 21:20:01.863 -0400,0,0,0,0,0,0,0,0,0,14664.356287,-0.0238494873046875,-0.3423309326171875,-1.002288818359375,14664.336176,-0.002240260841363088,-0.0651825579876589,0.3338948276322692,-0.0167155247181654,0.01715270429849625,-0.1409896016120911,0.03297467529773712,-0.01134037971496582,-0.05436456203460693,XArbitraryZVertical,0.1660486294200518,-0.03231847502326012,-0.006518796807119405,0.9855663341746507,-0.06153912842273712,-0.3277252316474915,-0.9427667260169983,0,0,0,-1,-1,14654.606497,unknown,2,2021-04-05 21:19:52.106 -0400,2021-04-05 19:23:45.401 -0400,642,1.416612,0,0,471.0333,0,0,2021-04-05 21:19:49.536 -0400,639364799.8288157,0,-2.21,98.19299,1,0.7
2021-04-05 21:20:01.893 -0400,0,0,0,0,0,0,0,0,0,14664.391485,-0.040435791015625,-0.348388671875,-0.93048095703125,14664.366358,-0.004965617755039571,-0.06284780474198924,0.3371301645646063,0.1731886714696884,0.03019045479595661,-0.01786952465772629,0.03542144969105721,-0.01155078411102295,-0.06044405698776245,XArbitraryZVertical,0.1676076976442226,-0.0313896519827665,-0.007717447383938375,0.985323706740138,-0.05927092954516411,-0.3307801783084869,-0.9418447017669678,0,0,0,-1,-1,14654.606497,unknown,2,2021-04-05 21:19:52.106 -0400,2021-04-05 19:23:45.401 -0400,642,1.416612,0,0,471.0333,0,0,2021-04-05 21:19:49.536 -0400,639364799.8288157,0,-2.21,98.19299,1,0.7
2021-04-05 21:20:01.933 -0400,0,0,0,0,0,0,0,0,0,14664.426691,-0.067138671875,-0.37286376953125,-0.9183807373046875,14664.396509,-0.004285076558477655,-0.06165853368759451,0.3449055538041872,0.2629617154598236,0.02342420071363449,0.02114050835371017,0.02484845370054245,-0.007915794849395752,0.005359053611755371,XArbitraryZVertical,0.1714522581416772,-0.03073457338553081,-0.007399182065247897,0.984685115828895,-0.05799053981900215,-0.3381077945232391,-0.9393190145492554,0,0,0,-1,-1,14654.606497,unknown,2,2021-04-05 21:19:52.106 -0400,2021-04-05 19:23:45.401 -0400,642,1.416612,0,0,471.0333,0,0,2021-04-05 21:19:49.536 -0400,639364799.8288157,0,-2.21,98.19299,1,0.7
2021-04-05 21:20:01.964 -0400,0,0,0,0,0,0,0,0,0,14664.461859,-0.0653839111328125,-0.364471435546875,-0.8834991455078125,14664.456843,-0.006177055023369447,-0.05863600647254911,0.3545122875954841,0.1530359089374542,-0.003157115075737238,-0.07125160098075867,-0.013889379799366,-0.01144859194755554,0.04399228096008301,XArbitraryZVertical,0.17616365612216,-0.02939871978137294,-0.008207684203951604,0.9838874797036449,-0.0549582727253437,-0.3471330106258392,-0.9362041354179382,0,0,0,-1,-1,14654.606497,unknown,2,2021-04-05 21:19:52.106 -0400,2021-04-05 19:23:45.401 -0400,642,1.416612,0,0,471.0333,0,0,2021-04-05 21:19:49.536 -0400,639364799.8288157,0,-2.21,98.19299,1,0.7
2021-04-05 21:20:02.003 -0400,0,0,0,0,0,0,0,0,0,14664.497095,-0.0489349365234375,-0.363616943359375,-0.902557373046875,14664.487024,-0.009923500172553482,-0.05814332196009554,0.3567277200404333,-0.04136785119771957,-0.08693127334117889,-0.1735202819108963,-0.008093584328889847,-0.01915264129638672,0.05672270059585571,XArbitraryZVertical,0.1772005334286365,-0.02948600079384123,-0.01003804263604704,0.983681781500314,-0.05445219203829765,-0.3492098450660706,-0.9354611039161682,0,0,0,-1,-1,14654.606497,unknown,2,2021-04-05 21:19:52.106 -0400,2021-04-05 19:23:45.401 -0400,642,1.416612,0,0,471.0333,0,0,2021-04-05 21:19:49.536 -0400,639364799.8288157,0,-2.21,98.19299,1,0.7
2021-04-05 21:20:02.033 -0400,0,0,0,0,0,0,0,0,0,14664.532263,-0.031707763671875,-0.3033599853515625,-1.00341796875,14664.517206,-0.01763475830777258,-0.05902853492277976,0.3531139635111232,-0.2794095575809479,-0.08182798326015472,-0.2777848839759827,0.009654268622398376,0.008098483085632324,0.006017386913299561,XArbitraryZVertical,0.175301646888177,-0.0305980970925726,-0.01385937755777493,0.9839416159046911,-0.05535433813929558,-0.3458213210105896,-0.9366661906242371,0,0,0,-1,-1,14654.606497,unknown,2,2021-04-05 21:19:52.106 -0400,2021-04-05 19:23:45.401 -0400,642,1.416612,0,0,471.0333,0,0,2021-04-05 21:19:49.536 -0400,639364799.8288157,0,-2.21,98.19299,1,0.7
2021-04-05 21:20:02.073 -0400,0,0,0,0,0,0,0,0,0,14664.567469,-0.0399322509765625,-0.2768707275390625,-0.9925537109375,14664.547358,-0.02591852121131909,-0.05704854843974534,0.3455727282623689,-0.2474334090948105,0.04828194156289101,-0.1899463981389999,0.02793576195836067,0.04115864634513855,-0.07155907154083252,XArbitraryZVertical,0.1714794136234509,-0.030320451808784,-0.0176637800127429,0.9845626584075338,-0.05364682152867317,-0.3387356102466583,-0.939350962638855,0,0,0,-1,-1,14654.606497,unknown,2,2021-04-05 21:19:52.106 -0400,2021-04-05 19:23:45.401 -0400,642,1.416612,0,0,471.0333,0,0,2021-04-05 21:19:49.536 -0400,639364799.8288157,0,-2.21,98.19299,1,0.7
2021-04-05 21:20:02.104 -0400,0,0,0,0,0,0,0,0,0,14664.602667,-0.09588623046875,-0.307373046875,-0.9217987060546875,14664.57754,-0.02829468081727244,-0.05455245959148949,0.34538452802094,0.1220721453428268,0.09485626220703125,0.03144761174917221,0.01137318089604378,0.06168776750564575,-0.05300807952880859,XArbitraryZVertical,0.1713739996733093,-0.02929452174489448,-0.01861722690688938,0.9845943878401737,-0.05130542442202568,-0.3385585248470306,-0.9395455718040466,0,0,0,-1,-1,14654.606497,unknown,2,2021-04-05 21:19:52.106 -0400,2021-04-05 19:23:45.401 -0400,642,1.416612,0,0,471.0333,0,0,2021-04-05 21:19:49.536 -0400,639364799.8288157,0,-2.21,98.19299,1,0.7
2021-04-05 21:20:02.144 -0400,0,0,0,0,0,0,0,0,0,14664.637873,-0.1152496337890625,-0.3358306884765625,-0.9311676025390625,14664.607691,-0.02574569646111285,-0.05213480642194622,0.3517758235096296,0.2550408244132996,0.09275579452514648,0.0775814950466156,-0.04055751487612724,0.03797054290771484,0.01135462522506714,XArbitraryZVertical,0.1745781260950027,-0.02791188306290208,-0.0172300251040997,0.9840968878750668,-0.04892002418637276,-0.3445654213428497,-0.9374868273735046,0,0,0,-1,-1,14654.606497,unknown,2,2021-04-05 21:19:52.106 -0400,2021-04-05 19:23:45.401 -0400,642,1.416612,0,0,471.0333,0,0,2021-04-05 21:19:49.536 -0400,639364799.8288157,0,-2.21,98.19299,1,0.7
2021-04-05 21:20:02.174 -0400,0,0,0,0,0,0,0,0,0,14664.67305125,-0.1128997802734375,-0.3172760009765625,-0.9330291748046875,14664.637873,-0.02508651685318261,-0.04819652595171498,0.3558852002056498,0.1348269283771515,0.08389946818351746,-0.05480995029211044,-0.06395663321018219,0.02151587605476379,0.01341366767883301,XArbitraryZVertical,0.1766422715638548,-0.02593310781729467,-0.01660605866835097,0.983793226029785,-0.04515896737575531,-0.3484202325344086,-0.9362499713897705,0,0,0,-1,-1,14654.606497,unknown,2,2021-04-05 21:19:52.106 -0400,2021-04-05 19:23:45.401 -0400,642,1.416612,0,0,471.0333,0,0,2021-04-05 21:19:49.536 -0400,639364799.8288157,0,-2.21,98.19299,1,0.7
2021-04-05 21:20:02.214 -0400,0,0,0,0,0,0,0,0,0,14664.70825725,-0.0630340576171875,-0.3197479248046875,-0.9862518310546875,14664.69818625,-0.03385052115901482,-0.04113942314696758,0.3622459537999206,0.1445100456476212,0.0616590827703476,-0.2505383789539337,-0.05883127823472023,0.03407800197601318,-0.01219058036804199,XArbitraryZVertical,0.1797279724993367,-0.02327693639781225,-0.0203485983904081,0.9832304150264701,-0.03845876082777977,-0.3543753325939178,-0.934312105178833,0,0,0,-1,-1,14654.606497,unknown,2,2021-04-05 21:19:52.106 -0400,2021-04-05 19:23:45.401 -0400,642,1.416612,0,0,471.0333,0,0,2021-04-05 21:19:49.536 -0400,639364799.8288157,0,-2.21,98.19299,1,0.7
2021-04-05 21:20:02.287 -0400,0,0,0,0,0,0,0,0,0,14664.74342425,-0.03839111328125,-0.2699432373046875,-1.02301025390625,14664.72836825,-0.04302573925429388,-0.0399500964940581,0.3644489093493282,0.0455738939344883,-0.0333440899848938,-0.3675882518291473,-0.008872091770172119,0.03525212407112122,-0.0649755597114563,XArbitraryZVertical,0.1807170224046982,-0.02353590313525392,-0.02476958197350412,0.9829414510523033,-0.03731625899672508,-0.3564344644546509,-0.9335748553276062,0,0,0,-1,-1,14654.606497,unknown,2,2021-04-05 21:19:52.106 -0400,2021-04-05 19:23:45.401 -0400,642,1.416612,0,0,471.0333,0,0,2021-04-05 21:19:49.536 -0400,639364799.8288157,0,-2.21,98.19299,1,0.7
2021-04-05 21:20:02.325 -0400,0,0,0,0,0,0,0,0,0,14664.77863025,-0.054779052734375,-0.287628173828125,-0.967010498046875,14664.75851925,-0.05238254801664134,-0.03819765041973534,0.3655632968528699,0.1118379384279251,0.09251301735639572,-0.2455194294452667,-0.003031309694051743,0.0823289155960083,-0.08339071273803711,XArbitraryZVertical,0.1811783035719036,-0.02353235241764742,-0.02921744368683773,0.9827344373186813,-0.03566497191786766,-0.3574754297733307,-0.9332413077354431,0,0,0,-1,-1,14654.606497,unknown,2,2021-04-05 21:19:52.106 -0400,2021-04-05 19:23:45.401 -0400,642,1.416612,0,0,471.0333,0,0,2021-04-05 21:19:49.536 -0400,639364799.8288157,0,-2.21,98.19299,1,0.7
2021-04-05 21:20:02.330 -0400,0,0,0,0,0,0,0,0,0,14664.81382825,-0.0679168701171875,-0.319091796875,-0.920623779296875,14664.78870125,-0.05705484596186908,-0.035633992690339,0.3719517028464933,0.2649456858634949,0.06874401867389679,-0.12838114798069,-0.02158873900771141,0.0758061408996582,-0.03598207235336304,XArbitraryZVertical,0.1843016563936466,-0.02277504284106465,-0.03132020001860945,0.9821065564760829,-0.03319031000137329,-0.363434374332428,-0.9310283660888672,0,0,0,-1,-1,14654.606497,unknown,2,2021-04-05 21:19:52.106 -0400,2021-04-05 19:23:45.401 -0400,642,1.416612,0,0,471.0333,0,0,2021-04-05 21:19:49.536 -0400,639364799.8288157,0,-2.21,98.19299,1,0.7
2021-04-05 21:20:02.355 -0400,0,0,0,0,0,0,0,0,0,14664.84903425,-0.0516204833984375,-0.33648681640625,-0.88525390625,14664.81888325,-0.05954228470915396,-0.03393114893722095,0.3761156424185614,0.1328751146793365,0.03382226824760437,-0.09066584706306458,-0.03593636676669121,0.05432209372520447,0.001203060150146484,XArbitraryZVertical,0.186345507235935,-0.02222240649890848,-0.03240790601830603,0.9816980747398315,-0.03155325353145599,-0.3673104047775269,-0.929563045501709,0,0,0,-1,-1,14654.606497,unknown,2,2021-04-05 21:19:52.106 -0400,2021-04-05 19:23:45.401 -0400,642,1.416612,0,0,471.0333,0,0,2021-04-05 21:19:49.536 -0400,639364799.8288157,0,-2.21,98.19299,1,0.7
2021-04-05 21:20:02.386 -0400,0,0,0,0,0,0,0,0,0,14664.88423225,-0.0348052978515625,-0.351470947265625,-0.875213623046875,14664.87921625,-0.06454330668243094,-0.03590653011440767,0.3724761068995682,-0.05568199977278709,-0.169900193810463,-0.03112710639834404,0.0003866702318191528,0.02438423037528992,0.0532194972038269,XArbitraryZVertical,0.1844678521424808,-0.0236062061702745,-0.03502536703022249,0.9819305286811498,-0.03343719989061356,-0.3639228641986847,-0.9308286905288696,0,0,0,-1,-1,14654.606497,unknown,2,2021-04-05 21:19:52.106 -0400,2021-04-05 19:23:45.401 -0400,642,1.416612,0,0,471.0333,0,0,2021-04-05 21:19:49.536 -0400,639364799.8288157,0,-2.21,98.19299,1,0.7
2021-04-05 21:20:02.425 -0400,0,0,0,0,0,0,0,0,0,14664.91943825,-0.066436767578125,-0.3624725341796875,-0.911102294921875,14664.90936825,-0.06468396715278868,-0.04255880728494508,0.3667979385426444,-0.1810286045074463,-0.1834890395402908,-0.008078444749116898,-0.001925408840179443,0.002396494150161743,0.05034154653549194,XArbitraryZVertical,0.181559439773531,-0.02680594543597384,-0.0356653082829118,0.9823673436679333,-0.03971582278609276,-0.3586282134056091,-0.9326352477073669,0,0,0,-1,-1,14654.606497,unknown,2,2021-04-05 21:19:52.106 -0400,2021-04-05 19:23:45.401 -0400,642,1.416612,0,0,471.0333,0,0,2021-04-05 21:19:49.536 -0400,639364802.4029833,0,-2.22,98.1931,1,0.7
2021-04-05 21:20:02.456 -0400,0,0,0,0,0,0,0,0,0,14664.95460625,-0.0690155029296875,-0.3761749267578125,-0.9111785888671875,14664.93955025,-0.06575136439520601,-0.04577469549057986,0.3631405306344425,-0.02853891626000404,-0.001850486733019352,-0.06413660198450089,-0.03589970991015434,-0.02212291955947876,0.01042115688323975,XArbitraryZVertical,0.1796895375925462,-0.02843086077362661,-0.03645123126265831,0.9826365764837696,-0.04277459904551506,-0.3552117049694061,-0.9338067173957825,0,0,0,-1,-1,14654.606497,unknown,2,2021-04-05 21:19:52.106 -0400,2021-04-05 19:23:45.401 -0400,642,1.416612,0,0,471.0333,0,0,2021-04-05 21:19:49.536 -0400,639364802.4029833,0,-2.22,98.1931,1,0.7
2021-04-05 21:20:02.496 -0400,0,0,0,0,0,0,0,0,0,14664.98984325,-0.057525634765625,-0.371551513671875,-0.883453369140625,14664.96973125,-0.06872921419363992,-0.04323103754563114,0.3635527411711765,-0.009461762383580208,0.07383021712303162,-0.113373190164566,-0.02706625685095787,-0.01760253310203552,0.03032380342483521,XArbitraryZVertical,0.179897647536498,-0.02745483208831177,-0.03768884904512255,0.9825796086267495,-0.04039284586906433,-0.3555969893932343,-0.9337661266326904,0,0,0,-1,-1,14654.606497,unknown,2,2021-04-05 21:19:52.106 -0400,2021-04-05 19:23:45.401 -0400,642,1.416612,0,0,471.0333,0,0,2021-04-05 21:19:49.536 -0400,639364802.4029833,0,-2.22,98.1931,1,0.7
2021-04-05 21:20:02.526 -0400,0,0,0,0,0,0,0,0,0,14665.02501025,-0.0514068603515625,-0.375946044921875,-0.8873443603515625,14664.99988325,-0.07295707662866484,-0.04001788771506939,0.3625800584796089,-0.08540526032447815,0.04186497628688812,-0.1459640264511108,-0.02011949568986893,-0.01686385273933411,0.05078291893005371,XArbitraryZVertical,0.1794248736660889,-0.02624088616270675,-0.03947053267008162,0.982629208332534,-0.03740613162517548,-0.3546877205371857,-0.9342362880706787,0,0,0,-1,-1,14654.606497,unknown,2,2021-04-05 21:19:52.106 -0400,2021-04-05 19:23:45.401 -0400,642,1.416612,0,0,471.0333,0,0,2021-04-05 21:19:49.536 -0400,639364802.4029833,0,-2.22,98.1931,1,0.7
2021-04-05 21:20:02.567 -0400,0,0,0,0,0,0,0,0,0,14665.06021625,-0.0324554443359375,-0.3783111572265625,-0.9383087158203125,14665.03006525,-0.07749337165516032,-0.03855223966304654,0.3611749187429772,-0.07827969640493393,0.02097237296402454,-0.1569661647081375,-0.01791432872414589,-0.02089405059814453,0.05134910345077515,XArbitraryZVertical,0.1787048524294098,-0.02590341455279212,-0.04155930793284968,0.9826832675710366,-0.03605600446462631,-0.3533735871315002,-0.9347871541976929,0,0,0,-1,-1,14654.606497,unknown,2,2021-04-05 21:19:52.106 -0400,2021-04-05 19:23:45.401 -0400,642,1.416612,0,0,471.0333,0,0,2021-04-05 21:19:49.536 -0400,639364802.4029833,0,-2.22,98.1931,1,0.7
2021-04-05 21:20:02.597 -0400,0,0,0,0,0,0,0,0,0,14665.09541425,-0.0303955078125,-0.3867034912109375,-0.975830078125,14665.09039825,-0.08486813740064175,-0.03787235616716091,0.3567163534337655,-0.1062094122171402,-0.01161779463291168,-0.02840693667531013,0.008136004209518433,-0.02627390623092651,-0.02897065877914429,XArbitraryZVertical,0.1764320425968701,-0.02614268269766461,-0.04509720985340443,0.9829316036873452,-0.03547975420951843,-0.3491991758346558,-0.9363765716552734,0,0,0,-1,-1,14654.606497,unknown,2,2021-04-05 21:19:52.106 -0400,2021-04-05 19:23:45.401 -0400,642,1.416612,0,0,471.0333,0,0,2021-04-05 21:19:49.536 -0400,639364802.4029833,0,-2.22,98.1931,1,0.7
2021-04-05 21:20:02.637 -0400,0,0,0,0,0,0,0,0,0,14665.13062025,-0.0445556640625,-0.40130615234375,-0.9791107177734375,14665.12058025,-0.08362581828299792,-0.03884731890727536,0.3564374145219757,0.01300748344510794,-0.002627515234053135,0.09982500225305557,0.0001720897853374481,-0.0420839786529541,-0.0430532693862915,XArbitraryZVertical,0.1762893996337765,-0.02650699830212816,-0.04457102174115292,0.9829714806653967,-0.03639644756913185,-0.3489377796649933,-0.9364388585090637,0,0,0,-1,-1,14654.606497,unknown,2,2021-04-05 21:19:52.106 -0400,2021-04-05 19:23:45.401 -0400,642,1.416612,0,0,471.0333,0,0,2021-04-05 21:19:49.536 -0400,639364802.4029833,0,-2.22,98.1931,1,0.7
2021-04-05 21:20:02.667 -0400,0,0,0,0,0,0,0,0,0,14665.16581825,-0.07904052734375,-0.4084930419921875,-0.957794189453125,14665.15073125,-0.07900795742963124,-0.04056283214564675,0.3593322225616066,0.08778450638055801,0.005408000200986862,0.1655040979385376,-0.01599332690238953,-0.05389896035194397,-0.04065132141113281,XArbitraryZVertical,0.1777368761532024,-0.0269941326488209,-0.04247123149937464,0.9827905256389878,-0.03796174749732018,-0.3516491949558258,-0.9353618621826172,0,0,0,-1,-1,14654.606497,unknown,2,2021-04-05 21:19:52.106 -0400,2021-04-05 19:23:45.401 -0400,642,1.416612,0,0,471.0333,0,0,2021-04-05 21:19:49.536 -0400,639364802.4029833,0,-2.22,98.1931,1,0.7
2021-04-05 21:20:02.707 -0400,0,0,0,0,0,0,0,0,0,14665.20102425,-0.0668792724609375,-0.3912200927734375,-0.9370269775390625,14665.18091325,-0.07459702454160216,-0.04082061698220657,0.3618868243074329,0.05520308390259743,0.03951413929462433,0.08760323375463486,-0.04398722946643829,-0.05437731742858887,-0.0196349024772644,XArbitraryZVertical,0.1790464265140891,-0.02677093983266539,-0.04034362596993399,0.9826484988300614,-0.03816608339548111,-0.3540394902229309,-0.9344514012336731,0,0,0,-1,-1,14654.606497,unknown,2,2021-04-05 21:19:52.106 -0400,2021-04-05 19:23:45.401 -0400,642,1.416612,0,0,471.0333,0,0,2021-04-05 21:19:49.536 -0400,639364802.4029833,0,-2.22,98.1931,1,0.7
2021-04-05 21:20:02.737 -0400,0,0,0,0,0,0,0,0,0,14665.23619225,-0.0321044921875,-0.3691864013671875,-0.923736572265625,14665.21106425,-0.07300756462758846,-0.04102915743932928,0.3635406245343246,0.0454169325530529,-0.04255231469869614,0.02724677324295044,-0.02854238077998161,-0.03563445806503296,-0.003169834613800049,XArbitraryZVertical,0.1798762454287765,-0.02675771911853764,-0.03959257231966069,0.9825279120363712,-0.03833688423037529,-0.3555856645107269,-0.9338571429252625,0,0,0,-1,-1,14654.606497,unknown,2,2021-04-05 21:19:52.106 -0400,2021-04-05 19:23:45.401 -0400,642,1.416612,0,0,471.0333,0,0,2021-04-05 21:19:49.536 -0400,639364802.4029833,0,-2.22,98.1931,1,0.7
2021-04-05 21:20:02.821 -0400,0,0,0,0,0,0,0,0,0,14665.27139825,-0.028564453125,-0.374908447265625,-0.9375762939453125,14665.24124625,-0.07196042963707759,-0.04397620460967711,0.3658090491547426,0.03019105270504951,-0.1147008687257767,0.03280014544725418,0.003135189414024353,-0.01195454597473145,0.01154518127441406,XArbitraryZVertical,0.1809470372235598,-0.02814691314576278,-0.0393602896193878,0.9823017656420108,-0.04105326905846596,-0.3577049374580383,-0.9329318404197693,0,0,0,-1,-1,14654.606497,unknown,2,2021-04-05 21:19:52.106 -0400,2021-04-05 19:23:45.401 -0400,642,1.416612,0,0,471.0333,0,0,2021-04-05 21:19:49.536 -0400,639364802.4029833,0,-2.22,98.1931,1,0.7
2021-04-05 21:20:02.826 -0400,0,0,0,0,0,0,0,0,0,14665.30659625,-0.0209197998046875,-0.3719024658203125,-0.9200286865234375,14665.27139825,-0.06965049466839353,-0.04877230439260359,0.3678264890091672,0.04777839034795761,-0.05601074174046516,0.07808666676282883,0.01631713658571243,-0.01310780644416809,-0.00789409875869751,XArbitraryZVertical,0.1818783076593518,-0.03032358108989751,-0.03867739213507532,0.9820920542676884,-0.04549193754792213,-0.3595881462097168,-0.932001531124115,0,0,0,-1,-1,14654.606497,unknown,2,2021-04-05 21:19:52.106 -0400,2021-04-05 19:23:45.401 -0400,642,1.416612,0,0,471.0333,0,0,2021-04-05 21:19:49.536 -0400,639364802.4029833,0,-2.22,98.1931,1,0.7
2021-04-05 21:20:02.848 -0400,0,0,0,0,0,0,0,0,0,14665.34180225,-0.0205535888671875,-0.3477783203125,-0.9899444580078125,14665.33176125,-0.06099142373930207,-0.05404720577370688,0.369828143252937,-0.09394533932209015,-0.1470284014940262,0.1707348227500916,0.0382377915084362,-0.008906155824661255,-0.006410896778106689,XArbitraryZVertical,0.1828996462139752,-0.03215141123810239,-0.0349259331194,0.9819848513632291,-0.05036851763725281,-0.3614552021026611,-0.9310280084609985,0,0,0,-1,-1,14654.606497,unknown,2,2021-04-05 21:19:52.106 -0400,2021-04-05 19:23:45.401 -0400,642,1.416612,0,0,471.0333,0,0,2021-04-05 21:19:49.536 -0400,639364802.4029833,0,-2.22,98.1931,1,0.7
2021-04-05 21:20:02.879 -0400,0,0,0,0,0,0,0,0,0,14665.37700025,-0.03094482421875,-0.3240509033203125,-1.055587768554688,14665.36191325,-0.05686814883760894,-0.06091218142717481,0.3637655281022059,-0.2688279747962952,-0.1977182030677795,0.1432405859231949,0.03012720495462418,0.01798146963119507,-0.1033938527107239,XArbitraryZVertical,0.1798731751888201,-0.03507710044384899,-0.03345418419962554,0.9824948087074905,-0.05689111724495888,-0.3557958602905273,-0.9328304529190063,0,0,0,-1,-1,14654.606497,unknown,2,2021-04-05 21:19:52.106 -0400,2021-04-05 19:23:45.401 -0400,642,1.416612,0,0,471.0333,0,0,2021-04-05 21:19:49.536 -0400,639364802.4029833,0,-2.22,98.1931,1,0.7
2021-04-05 21:20:02.918 -0400,0,0,0,0,0,0,0,0,0,14665.41220625,-0.02130126953125,-0.2877960205078125,-0.894561767578125,14665.39209525,-0.05183852278364214,-0.06470263788703001,0.3603154144540404,0.05156989023089409,0.02617625147104263,0.2336428910493851,0.02924030646681786,0.03672769665718079,-0.1026104092597961,XArbitraryZVertical,0.1782061051533067,-0.03645287398796643,-0.03127747854407689,0.982820153280509,-0.06050556153059006,-0.3525694012641907,-0.9338275194168091,0,0,0,-1,-1,14654.606497,unknown,2,2021-04-05 21:19:52.106 -0400,2021-04-05 19:23:45.401 -0400,642,1.416612,0,0,471.0333,0,0,2021-04-05 21:19:49.536 -0400,639364802.4029833,0,-2.22,98.1931,1,0.7
2021-04-05 21:20:02.949 -0400,0,0,0,0,0,0,0,0,0,14665.44740425,-0.031646728515625,-0.324188232421875,-0.898529052734375,14665.42224625,-0.04271102094456389,-0.06457862764097644,0.3634305618057527,0.04554890096187592,0.05661112070083618,0.338189959526062,0.03901732340455055,0.06768673658370972,0.03817278146743774,XArbitraryZVertical,0.1799034681036968,-0.03560191532640119,-0.02682423279321196,0.9826737126311273,-0.06031858921051025,-0.355482816696167,-0.932734489440918,0,0,0,-1,-1,14654.606497,unknown,2,2021-04-05 21:19:52.106 -0400,2021-04-05 19:23:45.401 -0400,642,1.416612,0,0,471.0333,0,0,2021-04-05 21:19:49.536 -0400,639364802.4029833,0,-2.22,98.1931,1,0.7
2021-04-05 21:20:02.989 -0400,0,0,0,0,0,0,0,0,0,14665.48261025,-0.0462188720703125,-0.317626953125,-0.969268798828125,14665.45242825,-0.03207652298805881,-0.0674767408875237,0.3618028866711764,0.01823624409735203,-0.06126264110207558,0.3167742192745209,0.03214612603187561,0.03164952993392944,0.0433003306388855,XArbitraryZVertical,0.1792587087621559,-0.03606104003595233,-0.02183504574283713,0.9828983742824575,-0.06306043267250061,-0.3539609611034393,-0.9331318140029907,0,0,0,-1,-1,14654.606497,unknown,2,2021-04-05 21:19:52.106 -0400,2021-04-05 19:23:45.401 -0400,642,1.416612,0,0,471.0333,0,0,2021-04-05 21:19:49.536 -0400,639364802.4029833,0,-2.22,98.1931,1,0.7
2021-04-05 21:20:03.019 -0400,0,0,0,0,0,0,0,0,0,14665.51777725,-0.0902099609375,-0.3170166015625,-0.910888671875,14665.48261025,-0.02278367410023027,-0.07234620055599145,0.3605869010804542,0.07688018679618835,-0.06829050183296204,0.2942588329315186,0.03429412096738815,0.0316106379032135,-0.0312962532043457,XArbitraryZVertical,0.1787840477007764,-0.0376180915135739,-0.01768427828559813,0.9830098332377869,-0.06763457506895065,-0.3528234660625458,-0.9332422614097595,0,0,0,-1,-1,14654.606497,unknown,2,2021-04-05 21:19:52.106 -0400,2021-04-05 19:23:45.401 -0400,642,1.416612,0,0,471.0333,0,0,2021-04-05 21:19:49.536 -0400,639364802.4029833,0,-2.22,98.1931,1,0.7
2021-04-05 21:20:03.059 -0400,0,0,0,0,0,0,0,0,0,14665.55298325,-0.0521392822265625,-0.323333740234375,-0.9422454833984375,14665.54294325,-0.01155447741021209,-0.07511850697287487,0.3631503563107965,-0.004181124735623598,-0.04373672604560852,0.01827885955572128,-0.01146582514047623,0.03388601541519165,0.02601832151412964,XArbitraryZVertical,0.180235338979251,-0.03797500185299352,-0.01245893182343295,0.9828112367877744,-0.07015343755483627,-0.3552208840847015,-0.9321462512016296,0,0,0,-1,-1,14654.606497,unknown,2,2021-04-05 21:19:52.106 -0400,2021-04-05 19:23:45.401 -0400,642,1.416612,0,0,471.0333,0,0,2021-04-05 21:19:49.536 -0400,639364802.4029833,0,-2.22,98.1931,1,0.7
2021-04-05 21:20:03.089 -0400,0,0,0,0,0,0,0,0,0,14665.58818125,-0.0189666748046875,-0.3134918212890625,-0.99847412109375,14665.57309425,-0.01373379658853717,-0.07533417906561912,0.359921345537232,-0.1053706035017967,-0.0640881136059761,-0.08936083316802979,0.03288855403661728,0.03211694955825806,-0.03686851263046265,XArbitraryZVertical,0.1786052762770468,-0.03827738606309636,-0.01349146874036492,0.9830834528757989,-0.07044043391942978,-0.3522006273269653,-0.9332699775695801,0,0,0,-1,-1,14654.606497,unknown,2,2021-04-05 21:19:52.106 -0400,2021-04-05 19:23:45.401 -0400,642,1.416612,0,0,471.0333,0,0,2021-04-05 21:19:49.536 -0400,639364802.4029833,0,-2.22,98.1931,1,0.7
2021-04-05 21:20:03.130 -0400,0,0,0,0,0,0,0,0,0,14665.62338725,-0.01507568359375,-0.315826416015625,-0.914581298828125,14665.60327625,-0.01657226230539536,-0.07485623938296766,0.3577656622005613,0.02955476567149162,0.06129687279462814,-0.07547624409198761,0.05300693958997726,0.03675141930580139,-0.058815598487854,XArbitraryZVertical,0.1774945100113717,-0.03829432349820804,-0.01480592042113837,0.9832650052321198,-0.07005099952220917,-0.3501822352409363,-0.9340584874153137,0,0,0,-1,-1,14654.606497,unknown,2,2021-04-05 21:19:52.106 -0400,2021-04-05 19:23:45.401 -0400,642,1.416612,0,0,471.0333,0,0,2021-04-05 21:19:49.536 -0400,639364802.4029833,0,-2.22,98.1931,1,0.7
2021-04-05 21:20:03.160 -0400,0,0,0,0,0,0,0,0,0,14665.65861404167,-0.02215576171875,-0.3514556884765625,-0.92242431640625,14665.63345825,-0.01846053367112246,-0.07041271046610452,0.3582192640757008,-0.02254514023661613,0.2070049494504929,-0.05897270143032074,0.05081293731927872,0.03478062152862549,0.01962071657180786,XArbitraryZVertical,0.1777158374761039,-0.03627787827403772,-0.01534742292974214,0.9832931932460429,-0.06588862091302872,-0.3506070971488953,-0.9342020153999329,0,0,0,-1,-1,14654.606497,unknown,2,2021-04-05 21:19:52.106 -0400,2021-04-05 19:23:45.401 -0400,642,1.416612,0,0,471.0333,0,0,2021-04-05 21:19:49.536 -0400,639364802.4029833,0,-2.22,98.1931,1,0.7
2021-04-05 21:20:03.201 -0400,0,0,0,0,0,0,0,0,0,14665.69382004167,-0.01263427734375,-0.3403167724609375,-0.9595489501953125,14665.66363904167,-0.02024236016355683,-0.06267409838789932,0.3552365045382389,-0.0593649186193943,0.1829638779163361,-0.03734613582491875,0.03723815828561783,-0.001385331153869629,0.02024191617965698,XArbitraryZVertical,0.1762778936263708,-0.03262476715054234,-0.01549250859658123,0.9836776099856195,-0.05872253328561783,-0.3478121161460876,-0.9357234835624695,0,0,0,-1,-1,14654.606497,unknown,2,2021-04-05 21:19:52.106 -0400,2021-04-05 19:23:45.401 -0400,642,1.416612,0,0,471.0333,0,0,2021-04-05 21:19:49.536 -0400,639364802.4029833,0,-2.22,98.1931,1,0.7
2021-04-05 21:20:03.230 -0400,0,0,0,0,0,0,0,0,0,14665.72898804167,-0.0129547119140625,-0.327178955078125,-0.9297943115234375,14665.69382004167,-0.02190666156517481,-0.05640376327662856,0.3523321855354049,-0.06115520745515823,0.1204372569918633,-0.01974260807037354,0.03363899514079094,0.0002084672451019287,-0.01948028802871704,XArbitraryZVertical,0.174872033693407,-0.02967889113797284,-0.01572090778985311,0.9840181385974269,-0.05291084200143814,-0.3450876772403717,-0.9370778799057007,0,0,0,-1,-1,14654.606497,unknown,2,2021-04-05 21:19:52.106 -0400,2021-04-05 19:23:45.401 -0400,642,1.416612,0,0,471.0333,0,0,2021-04-05 21:19:49.536 -0400,639364802.4029833,0,-2.22,98.1931,1,0.7
2021-04-05 21:20:03.321 -0400,0,0,0,0,0,0,0,0,0,14665.76422504167,-0.0436859130859375,-0.3360137939453125,-0.9231719970703125,14665.75415404167,-0.0182337984161695,-0.05340862525829785,0.3487789758100623,-0.02116489037871361,-0.01940977200865746,0.1712934970855713,0.02543457597494125,0.01666203141212463,0.01790320873260498,XArbitraryZVertical,0.1731981227830186,-0.02787632171312491,-0.01360793570335278,0.9843983048295262,-0.05016906931996346,-0.3417505621910095,-0.9384506344795227,0,0,0,-1,-1,14654.606497,unknown,2,2021-04-05 21:19:52.106 -0400,2021-04-05 19:23:45.401 -0400,642,1.416612,0,0,471.0333,0,0,2021-04-05 21:19:49.536 -0400,639364802.4029833,0,-2.22,98.1931,1,0.7
2021-04-05 21:20:03.326 -0400,0,0,0,0,0,0,0,0,0,14665.79939204167,-0.0510711669921875,-0.337982177734375,-0.92431640625,14665.78433604167,-0.01312244824059238,-0.05470200474398329,0.3475777037745703,-0.02228053286671638,-0.003674772102385759,0.1664555370807648,-0.0004899278283119202,0.001586258411407471,0.007779240608215332,XArbitraryZVertical,0.1726702347115549,-0.02806917076409603,-0.01118864365686373,0.984516102019402,-0.05140521004796028,-0.3406213521957397,-0.9387941956520081,0,0,0,-1,-1,14654.606497,unknown,2,2021-04-05 21:19:52.106 -0400,2021-04-05 19:23:45.401 -0400,642,1.416612,0,0,471.0333,0,0,2021-04-05 21:19:49.536 -0400,639364802.4029833,0,-2.22,98.1931,1,0.7
2021-04-05 21:20:03.341 -0400,0,0,0,0,0,0,0,0,0,14665.83459804167,-0.045318603515625,-0.3507232666015625,-0.890716552734375,14665.81448704167,-0.008382271943421905,-0.05522962809724376,0.3474770406944586,0.04836580529808998,-0.0330754742026329,0.1594180464744568,0.003257408738136292,0.0002556443214416504,0.01649898290634155,XArbitraryZVertical,0.1726843655102978,-0.02791961111501296,-0.008899460345706876,0.9845413033384024,-0.05190242454409599,-0.3405267298221588,-0.9388012290000916,0,0,0,-1,-1,14654.606497,unknown,2,2021-04-05 21:19:52.106 -0400,2021-04-05 19:23:45.401 -0400,642,1.416612,0,0,471.0333,0,0,2021-04-05 21:19:49.536 -0400,639364802.4029833,0,-2.22,98.1931,1,0.7
2021-04-05 21:20:03.371 -0400,0,0,0,0,0,0,0,0,0,14665.86979604167,-0.0558624267578125,-0.3671417236328125,-0.8558807373046875,14665.84466904167,-0.003697496876723853,-0.05791549410054762,0.3489174505876507,0.06254029273986816,-0.07568217813968658,0.138581708073616,0.009076677262783051,-0.008842647075653076,0.04745125770568848,XArbitraryZVertical,0.1734493153385746,-0.02883491350790822,-0.0068455535689713,0.9843968158532425,-0.05439528077840805,-0.3418806791305542,-0.9381677508354187,0,0,0,-1,-1,14654.606497,unknown,2,2021-04-05 21:19:52.106 -0400,2021-04-05 19:23:45.401 -0400,642,1.416612,0,0,471.0333,0,0,2021-04-05 21:19:49.536 -0400,639364802.4029833,0,-2.22,98.1931,1,0.7
2021-04-05 21:20:03.412 -0400,0,0,0,0,0,0,0,0,0,14665.90500204167,-0.04132080078125,-0.3777008056640625,-0.9063873291015625,14665.87482004167,-0.000825018406493962,-0.06046472265886626,0.3492140274603004,-0.05957436561584473,-0.04027668386697769,0.0276686679571867,0.0002467632293701172,-0.02305978536605835,0.08251708745956421,XArbitraryZVertical,0.1736294634471656,-0.0298397662613558,-0.005657251296557044,0.9843426097232014,-0.05678057670593262,-0.3421593904495239,-0.9379248023033142,0,0,0,-1,-1,14654.606497,unknown,2,2021-04-05 21:19:52.106 -0400,2021-04-05 19:23:45.401 -0400,642,1.416612,0,0,471.0333,0,0,2021-04-05 21:19:49.536 -0400,639364802.4029833,0,-2.22,98.1931,1,0.7
2021-04-05 21:20:03.443 -0400,0,0,0,0,0,0,0,0,0,14665.94020004167,-0.012542724609375,-0.37274169921875,-0.93353271484375,14665.93518404167,-0.0032612648545992,-0.06006672996927732,0.3464213724608718,0.006749166175723076,-0.01566184498369694,-0.04406202957034111,0.03325580805540085,-0.04028788208961487,0.01661050319671631,XArbitraryZVertical,0.1722196747311629,-0.02986037717935035,-0.006780847404969662,0.9845826184123222,-0.05646442621946335,-0.3395339548587799,-0.9388974905014038,0,0,0,-1,-1,14654.606497,unknown,2,2021-04-05 21:19:52.106 -0400,2021-04-05 19:23:45.401 -0400,642,1.416612,0,0,471.0333,0,0,2021-04-05 21:19:49.536 -0400,639364802.4029833,0,-2.22,98.1931,1,0.7
2021-04-05 21:20:03.482 -0400,0,0,0,0,0,0,0,0,0,14665.97540604167,-0.0357666015625,-0.3816070556640625,-0.9434814453125,14665.96533504167,-0.003349016369399524,-0.06071674374275406,0.3485274716290453,0.0379469208419323,-0.004726618528366089,0.02171795070171356,0.04232171922922134,-0.02985429763793945,-0.0009421706199645996,XArbitraryZVertical,0.1732528768210592,-0.03018414069727,-0.006911197827672816,0.984390482711645,-0.05703119188547134,-0.3415141701698303,-0.9381447434425354,0,0,0,-1,-1,14654.606497,unknown,2,2021-04-05 21:19:52.106 -0400,2021-04-05 19:23:45.401 -0400,642,1.416612,0,0,471.0333,0,0,2021-04-05 21:19:49.536 -0400,639364802.4029833,0,-2.22,98.1931,1,0.7
2021-04-05 21:20:03.512 -0400,0,0,0,0,0,0,0,0,0,14666.01057404167,-0.0626373291015625,-0.3861541748046875,-0.947052001953125,14665.99551704167,-0.00269024517123736,-0.06020951819266072,0.3523053068969694,0.1155929565429688,0.04076674580574036,0.01079649291932583,0.009129274636507034,-0.04426559805870056,-0.01441490650177002,XArbitraryZVertical,0.175123640679911,-0.02987000622200138,-0.006598555019452648,0.9840711330562534,-0.05647729709744453,-0.3450624346733093,-0.9368789792060852,0,0,0,-1,-1,14654.606497,unknown,2,2021-04-05 21:19:52.106 -0400,2021-04-05 19:23:45.401 -0400,642,1.416612,0,0,471.0333,0,0,2021-04-05 21:19:49.536 -0400,639364802.4029833,0,-2.22,98.1931,1,0.7
2021-04-05 21:20:03.552 -0400,0,0,0,0,0,0,0,0,0,14666.04578004167,-0.05609130859375,-0.378753662109375,-0.9614105224609375,14666.02566904167,-0.003697084669029628,-0.05723504361469555,0.3565408416259463,0.06145025044679642,0.05847105383872986,-0.06965091079473495,-0.009168416261672974,-0.0346323549747467,-0.01259058713912964,XArbitraryZVertical,0.1772026995152873,-0.02848775766957451,-0.006892477069960508,0.9837378756133918,-0.05360624194145203,-0.3490347266197205,-0.9355753064155579,0,0,0,-1,-1,14654.606497,unknown,2,2021-04-05 21:19:52.106 -0400,2021-04-05 19:23:45.401 -0400,642,1.416612,0,0,471.0333,0,0,2021-04-05 21:19:49.536 -0400,639364802.4029833,0,-2.22,98.1931,1,0.7
2021-04-05 21:20:03.583 -0400,0,0,0,0,0,0,0,0,0,14666.08097804167,-0.0529022216796875,-0.3694000244140625,-0.9802093505859375,14666.05585104167,-0.006972867019479445,-0.05399986576147087,0.3592398889573612,0.07110321521759033,0.001156468410044909,-0.1136578842997551,-0.005563121289014816,-0.02719095349311829,-0.02661073207855225,XArbitraryZVertical,0.1784968363842667,-0.02718480255559666,-0.008252160410889504,0.9835302587881428,-0.05052818357944489,-0.3515627384185791,-0.9347997307777405,0,0,0,-1,-1,14654.606497,unknown,2,2021-04-05 21:19:52.106 -0400,2021-04-05 19:23:45.401 -0400,642,1.416612,0,0,471.0333,0,0,2021-04-05 21:19:49.536 -0400,639364802.4029833,0,-2.22,98.1931,1,0.7
2021-04-05 21:20:03.624 -0400,0,0,0,0,0,0,0,0,0,14666.11618404167,-0.0490875244140625,-0.337646484375,-0.9520721435546875,14666.11618404167,-0.01552528935503475,-0.05422356262747624,0.3635682965639986,0.093605637550354,-0.03701220452785492,-0.1386736929416656,-0.001545969396829605,0.01245656609535217,-0.03317046165466309,XArbitraryZVertical,0.1805057583974565,-0.02806381887114813,-0.01253249906057421,0.9830936267245878,-0.05065434798598289,-0.3556115329265594,-0.9332602024078369,0,0,0,-1,-1,14654.606497,unknown,2,2021-04-05 21:19:52.106 -0400,2021-04-05 19:23:45.401 -0400,642,1.416612,0,0,471.0333,0,0,2021-04-05 21:19:49.536 -0400,639364802.4029833,0,-2.22,98.1931,1,0.7
2021-04-05 21:20:03.653 -0400,0,0,0,0,0,0,0,0,0,14666.15138204167,-0.054931640625,-0.3180389404296875,-0.9777374267578125,14666.11618404167,-0.01552528935503475,-0.05422356262747624,0.3635682965639986,0.093605637550354,-0.03701220452785492,-0.1386736929416656,-0.001545969396829605,0.01245656609535217,-0.03317046165466309,XArbitraryZVertical,0.1805057583974565,-0.02806381887114813,-0.01253249906057421,0.9830936267245878,-0.05065434798598289,-0.3556115329265594,-0.9332602024078369,0,0,0,-1,-1,14654.606497,unknown,2,2021-04-05 21:19:52.106 -0400,2021-04-05 19:23:45.401 -0400,642,1.416612,0,0,471.0333,0,0,2021-04-05 21:19:49.536 -0400,639364802.4029833,0,-2.22,98.1931,1,0.7
2021-04-05 21:20:03.693 -0400,0,0,0,0,0,0,0,0,0,14666.18658804167,-0.068267822265625,-0.298065185546875,-1.018234252929688,14666.17651704167,-0.02673449726367195,-0.05116799804021395,0.3617200319176169,-0.2361623793840408,0.05292565375566483,-0.2141769528388977,-0.007065106183290482,0.04973000288009644,-0.07026803493499756,XArbitraryZVertical,0.1794643262409193,-0.02756529620678106,-0.01774554903925059,0.9832181374069039,-0.04783601313829422,-0.3538834750652313,-0.9340654015541077,0,0,0,-1,-1,14654.606497,unknown,2,2021-04-05 21:19:52.106 -0400,2021-04-05 19:23:45.401 -0400,642,1.416612,0,0,471.0333,0,0,2021-04-05 21:19:49.536 -0400,639364802.4029833,0,-2.22,98.1931,1,0.7
2021-04-05 21:20:03.723 -0400,0,0,0,0,0,0,0,0,0,14666.22175504167,-0.0686492919921875,-0.26763916015625,-1.013656616210938,14666.20669904167,-0.03458760265348277,-0.04520669641887831,0.3560091902572313,-0.171537846326828,0.147547110915184,-0.2425669133663177,-0.03073200583457947,0.06598940491676331,-0.07432824373245239,XArbitraryZVertical,0.1766096784061699,-0.02530218130250738,-0.02101669140574735,0.9837312389537781,-0.04235759004950523,-0.3485364615917206,-0.9363376498222351,0,0,0,-1,-1,14654.606497,unknown,2,2021-04-05 21:19:52.106 -0400,2021-04-05 19:23:45.401 -0400,642,1.416612,0,0,471.0333,0,0,2021-04-05 21:19:49.536 -0400,639364802.4029833,0,-2.22,98.1931,1,0.7
2021-04-05 21:20:03.823 -0400,0,0,0,0,0,0,0,0,0,14666.25699204167,-0.0835113525390625,-0.282806396484375,-0.897186279296875,14666.23688104167,-0.04025984089122775,-0.03908730949841718,0.3527148274464203,0.03721776977181435,0.1603930443525314,-0.1148050427436829,-0.03295416384935379,0.07780754566192627,-0.0607219934463501,XArbitraryZVertical,0.1749883430859469,-0.02276616814196273,-0.02324048321295105,0.9840329245611898,-0.03667169064283371,-0.345446765422821,-0.9377215504646301,0,0,0,-1,-1,14654.606497,unknown,2,2021-04-05 21:19:52.106 -0400,2021-04-05 19:23:45.401 -0400,642,1.416612,0,0,471.0333,0,0,2021-04-05 21:19:49.536 -0400,639364802.4029833,0,-2.22,98.1931,1,0.7
2021-04-05 21:20:03.827 -0400,0,0,0,0,0,0,0,0,0,14666.29215904167,-0.073638916015625,-0.2952728271484375,-0.8230438232421875,14666.26703204167,-0.04275610655204332,-0.03450473213669278,0.3559750246144857,0.2102872878313065,0.1516945064067841,-0.08035265654325485,-0.05117623135447502,0.06569799780845642,0.03956300020217896,XArbitraryZVertical,0.1766194970665371,-0.02075920858641494,-0.02408925900488282,0.9837653434127283,-0.03233511373400688,-0.3485044240951538,-0.9367492198944092,0,0,0,-1,-1,14654.606497,unknown,2,2021-04-05 21:19:52.106 -0400,2021-04-05 19:23:45.401 -0400,642,1.416612,0,0,471.0333,0,0,2021-04-05 21:19:49.536 -0400,639364802.4029833,0,-2.22,98.1931,1,0.7
2021-04-05 21:20:03.833 -0400,0,0,0,0,0,0,0,0,0,14666.32736504167,-0.0558013916015625,-0.2903900146484375,-0.9269256591796875,14666.29721404167,-0.04577864588117907,-0.03131991508108218,0.3581664608274298,0.06341491639614105,0.01596679724752903,-0.1513965278863907,-0.04547098651528358,0.05285859107971191,0.1128854751586914,XArbitraryZVertical,0.1777063828564278,-0.01948121195803945,-0.02530716135923878,0.9835651500855828,-0.02932759374380112,-0.3505576252937317,-0.9360818266868591,0,0,0,-1,-1,14654.606497,unknown,2,2021-04-05 21:19:52.106 -0400,2021-04-05 19:23:45.401 -0400,642,1.416612,0,0,471.0333,0,0,2021-04-05 21:19:49.536 -0400,639364802.4029833,0,-2.22,98.1931,1,0.7
2021-04-05 21:20:03.865 -0400,0,0,0,0,0,0,0,0,0,14666.36256304167,-0.0449981689453125,-0.2602691650390625,-1.023391723632812,14666.35754704167,-0.06041730305681709,-0.036547608307738,0.3453474164577829,-0.2513595223426819,-0.1150316968560219,-0.2873948514461517,-0.01346945017576218,0.06317871809005737,-0.05455869436264038,XArbitraryZVertical,0.1711661445956612,-0.02318154032504414,-0.03288806461033205,0.9844201688824786,-0.03438210487365723,-0.3385235965251923,-0.9403295516967773,0,0,0,-1,-1,14654.606497,unknown,2,2021-04-05 21:19:52.106 -0400,2021-04-05 19:23:45.401 -0400,642,1.416612,0,0,471.0333,0,0,2021-04-05 21:19:49.536 -0400,639364802.4029833,0,-2.22,98.1931,1,0.7
2021-04-05 21:20:03.904 -0400,0,0,0,0,0,0,0,0,0,14666.39776904167,-0.036529541015625,-0.2949066162109375,-1.018829345703125,14666.38772904167,-0.06728612825148933,-0.03568048614676008,0.3392110853935536,-0.1302266418933868,0.08117763698101044,-0.1510785967111588,-0.002217967063188553,0.05956509709358215,-0.09048062562942505,XArbitraryZVertical,0.1680797555859054,-0.02325013584136579,-0.03615825705916768,0.9848356382429323,-0.03364018350839615,-0.332743227481842,-0.9424172639846802,0,0,0,-1,-1,14654.606497,unknown,2,2021-04-05 21:19:52.106 -0400,2021-04-05 19:23:45.401 -0400,642,1.416612,0,0,471.0333,0,0,2021-04-05 21:19:49.536 -0400,639364802.4029833,0,-2.22,98.1931,1,0.7
2021-04-05 21:20:03.934 -0400,0,0,0,0,0,0,0,0,0,14666.43296704167,-0.0405426025390625,-0.3364410400390625,-0.9799652099609375,14666.41788104167,-0.06939521311099632,-0.03269566145174033,0.3357740046740945,-0.05635606497526169,0.1207980215549469,0.01006031129509211,-0.007145345211029053,0.02446156740188599,-0.07201975584030151,XArbitraryZVertical,0.1664174226042253,-0.02190357433170248,-0.03692827274787926,0.9851201930954481,-0.03086429089307785,-0.3295000493526459,-0.9436509609222412,0,0,0,-1,-1,14654.606497,unknown,2,2021-04-05 21:19:52.106 -0400,2021-04-05 19:23:45.401 -0400,642,1.416612,0,0,471.0333,0,0,2021-04-05 21:19:49.536 -0400,639364802.4029833,0,-2.22,98.1931,1,0.7
2021-04-05 21:20:03.974 -0400,0,0,0,0,0,0,0,0,0,14666.46817404167,-0.0679168701171875,-0.337005615234375,-0.852569580078125,14666.44806204167,-0.06655095615155042,-0.0306601148245081,0.3353113994166187,0.1664878576993942,0.09865196794271469,0.1265652626752853,-0.01370025798678398,-0.01010915637016296,-0.01978945732116699,XArbitraryZVertical,0.1662565672861781,-0.0206572006085084,-0.03535563718445148,0.9852318952444339,-0.02894805185496807,-0.3290632367134094,-0.9438640475273132,0,0,0,-1,-1,14654.606497,unknown,2,2021-04-05 21:19:52.106 -0400,2021-04-05 19:23:45.401 -0400,642,1.416612,0,0,471.0333,0,0,2021-04-05 21:19:49.536 -0400,639364802.4029833,0,-2.22,98.1931,1,0.7
2021-04-05 21:20:04.004 -0400,0,0,0,0,0,0,0,0,0,14666.50334104167,-0.090179443359375,-0.358367919921875,-0.8356170654296875,14666.47821404167,-0.06211474283913408,-0.02985541352234316,0.3371447756433422,0.05237145349383354,0.04816355556249619,0.1154629364609718,-0.03974640741944313,-0.006211698055267334,0.09071290493011475,XArbitraryZVertical,0.1672185919573883,-0.01991770342899172,-0.0331120054719778,0.9851623743052369,-0.02817045897245407,-0.3307939469814301,-0.943282425403595,0,0,0,-1,-1,14654.606497,unknown,2,2021-04-05 21:19:52.106 -0400,2021-04-05 19:23:45.401 -0400,642,1.416612,0,0,471.0333,0,0,2021-04-05 21:19:49.536 -0400,639364802.4029833,0,-2.22,98.1931,1,0.7
2021-04-05 21:20:04.045 -0400,0,0,0,0,0,0,0,0,0,14666.53857804167,-0.0384368896484375,-0.346435546875,-0.95867919921875,14666.50839604167,-0.06093969789698087,-0.03068743317479889,0.333659437636625,-0.1515683382749557,-0.07725705206394196,-0.0613795667886734,-0.0597241222858429,-0.02601286768913269,0.1164329648017883,XArbitraryZVertical,0.1654993546717591,-0.02018141920982228,-0.03258527036295999,0.9854648695281295,-0.0289904773235321,-0.3275028467178345,-0.9444053769111633,0,0,0,-1,-1,14654.606497,unknown,2,2021-04-05 21:19:52.106 -0400,2021-04-05 19:23:45.401 -0400,642,1.416612,0,0,471.0333,0,0,2021-04-05 21:19:49.536 -0400,639364802.4029833,0,-2.22,98.1931,1,0.7
2021-04-05 21:20:04.075 -0400,0,0,0,0,0,0,0,0,0,14666.57374504167,-0.01116943359375,-0.3377685546875,-1.063583374023438,14666.56872904167,-0.07261094108893838,-0.03706106981514602,0.3189825205010929,-0.2690771520137787,-0.09922497719526291,-0.1840674430131912,0.01765112578868866,-0.01641657948493958,-0.07996666431427002,XArbitraryZVertical,0.1580200075677611,-0.02404587901973336,-0.03877150046026735,0.9863813625714585,-0.03518346697092056,-0.3136005699634552,-0.94890296459198,0,0,0,-1,-1,14654.606497,unknown,2,2021-04-05 21:19:52.106 -0400,2021-04-05 19:23:45.401 -0400,642,1.416612,0,0,471.0333,0,0,2021-04-05 21:19:49.536 -0400,639364802.4029833,0,-2.22,98.1931,1,0.7
2021-04-05 21:20:04.115 -0400,0,0,0,0,0,0,0,0,0,14666.60895104167,-0.0140228271484375,-0.329071044921875,-1.012451171875,14666.59891104167,-0.07611501512036284,-0.03795889031582426,0.3170480701392622,0.0007711015641689301,0.08489915728569031,-0.04637475311756134,0.03091614693403244,-0.02508997917175293,-0.1149777173995972,XArbitraryZVertical,0.1570051556112078,-0.02473203284042607,-0.04055824107667088,0.9864546837826417,-0.03605835512280464,-0.3117631077766418,-0.9494754076004028,0,0,0,-1,-1,14654.606497,unknown,2,2021-04-05 21:19:52.106 -0400,2021-04-05 19:23:45.401 -0400,642,1.416612,0,0,471.0333,0,0,2021-04-05 21:19:49.536 -0400,639364802.4029833,0,-2.22,98.1931,1,0.7
2021-04-05 21:20:04.145 -0400,0,0,0,0,0,0,0,0,0,14666.64414904167,-0.0420989990234375,-0.3629608154296875,-0.9319000244140625,14666.62906204167,-0.07445246573716481,-0.03349823824005686,0.322308302659195,0.1920925080776215,0.2567586004734039,0.1031574830412865,0.008009433746337891,-0.01086467504501343,-0.03124284744262695,XArbitraryZVertical,0.1597085912815914,-0.02249088114681407,-0.03941577800489765,0.9861205636453347,-0.03176736459136009,-0.3167568445205688,-0.947974681854248,0,0,0,-1,-1,14654.606497,unknown,2,2021-04-05 21:19:52.106 -0400,2021-04-05 19:23:45.401 -0400,642,1.416612,0,0,471.0333,0,0,2021-04-05 21:19:49.536 -0400,639364802.4029833,0,-2.22,98.1931,1,0.7
2021-04-05 21:20:04.185 -0400,0,0,0,0,0,0,0,0,0,14666.67934641667,-0.07159423828125,-0.3773345947265625,-0.889892578125,14666.65923541667,-0.07042140781607813,-0.02778386529085665,0.3277073020348897,0.1800518035888672,0.1607885211706161,0.1302312612533569,-0.01825375854969025,-0.04403263330459595,0.02406936883926392,XArbitraryZVertical,0.1625221238954529,-0.01943880745055736,-0.03699315626534039,0.9858195792535486,-0.02630190178751945,-0.3218731880187988,-0.9464173913002014,0,0,0,-1,-1,14654.606497,unknown,2,2021-04-05 21:19:52.106 -0400,2021-04-05 19:23:45.401 -0400,642,1.416612,0,0,471.0333,0,0,2021-04-05 21:19:49.536 -0400,639364802.4029833,0,-2.22,98.1931,1,0.7
2021-04-05 21:20:04.216 -0400,0,0,0,0,0,0,0,0,0,14666.71454441667,-0.0702667236328125,-0.3937530517578125,-0.832427978515625,14666.68938641667,-0.06664461889149395,-0.02512745401078499,0.3322405016182163,0.1741349250078201,0.05246526002883911,0.09971052408218384,-0.04784339666366577,-0.05117282271385193,0.05512303113937378,XArbitraryZVertical,0.1648396092095314,-0.01789219609504021,-0.03493120331279895,0.9855393141830379,-0.02375083416700363,-0.3261618316173553,-0.945015549659729,0,0,0,-1,-1,14654.606497,unknown,2,2021-04-05 21:19:52.106 -0400,2021-04-05 19:23:45.401 -0400,642,1.416612,0,0,471.0333,0,0,2021-04-05 21:19:49.536 -0400,639364802.4029833,0,-2.22,98.1931,1,0.7
2021-04-05 21:20:04.287 -0400,0,0,0,0,0,0,0,0,0,14666.74975041667,-0.06793212890625,-0.3834228515625,-0.82073974609375,14666.71956841667,-0.06413124904091699,-0.02638642476088671,0.3368699470690616,0.1533581763505936,-0.07873465120792389,0.05668430775403976,-0.04620549455285072,-0.06190624833106995,0.1032096147537231,XArbitraryZVertical,0.1671219544349639,-0.01837352788658746,-0.03381418310560155,0.9851848034337436,-0.02490045689046383,-0.3305345773696899,-0.9434653520584106,0,0,0,-1,-1,14654.606497,unknown,2,2021-04-05 21:19:52.106 -0400,2021-04-05 19:23:45.401 -0400,642,1.416612,0,0,471.0333,0,0,2021-04-05 21:19:49.536 -0400,639364802.4029833,0,-2.22,98.1931,1,0.7
2021-04-05 21:20:04.327 -0400,0,0,0,0,0,0,0,0,0,14666.78491841667,-0.0444793701171875,-0.36419677734375,-0.929534912109375,14666.74975041667,-0.06315045696118049,-0.03076695402114499,0.3413149016977149,0.03555485978722572,-0.1352258175611496,-0.02722141332924366,-0.03920391947031021,-0.04848280549049377,0.1333977580070496,XArbitraryZVertical,0.1692469655061073,-0.02051275660523337,-0.03371886889377992,0.9847830899118876,-0.02898759953677654,-0.3347264230251312,-0.9418693780899048,0,0,0,-1,-1,14654.606497,unknown,2,2021-04-05 21:19:52.106 -0400,2021-04-05 19:23:45.401 -0400,642,1.416612,0,0,471.0333,0,0,2021-04-05 21:19:49.536 -0400,639364802.4029833,0,-2.22,98.1931,1,0.7
2021-04-05 21:20:04.332 -0400,0,0,0,0,0,0,0,0,0,14666.82012441667,-0.0068206787109375,-0.33050537109375,-1.043136596679688,14666.81008341667,-0.06993153373037907,-0.0394358509715651,0.3404074405590087,-0.1239807158708572,-0.1355864703655243,-0.1399189680814743,0.0009237192571163177,-0.01553985476493835,-0.04311472177505493,XArbitraryZVertical,0.1685673936171191,-0.02534012622544695,-0.03778443180271684,0.9846395832307623,-0.03716333582997322,-0.3338711857795715,-0.9418858289718628,0,0,0,-1,-1,14654.606497,unknown,2,2021-04-05 21:19:52.106 -0400,2021-04-05 19:23:45.401 -0400,642,1.416612,0,0,471.0333,0,0,2021-04-05 21:19:49.536 -0400,639364802.4029833,0,-2.22,98.1931,1,0.7
2021-04-05 21:20:04.357 -0400,0,0,0,0,0,0,0,0,0,14666.85532241667,0.002685546875,-0.31988525390625,-1.029922485351562,14666.84023541667,-0.07275350984077662,-0.0429471970029244,0.3413816250790002,0.001050877384841442,-0.08099809288978577,-0.02288435585796833,0.03526842221617699,0.008068084716796875,-0.1118289828300476,XArbitraryZVertical,0.1689420906931846,-0.02732219512016082,-0.03947682644697323,0.9844560300110443,-0.04045640304684639,-0.3347893059253693,-0.9414241313934326,0,0,0,-1,-1,14654.606497,unknown,2,2021-04-05 21:19:52.106 -0400,2021-04-05 19:23:45.401 -0400,642,1.416612,0,0,471.0333,0,0,2021-04-05 21:19:49.536 -0400,639364802.4029833,0,-2.22,98.1931,1,0.7
2021-04-05 21:20:04.396 -0400,0,0,0,0,0,0,0,0,0,14666.89052841667,-0.0269775390625,-0.3370513916015625,-0.94818115234375,14666.87041741667,-0.0704765005483512,-0.04446797269703907,0.3459640057183676,0.1425232887268066,0.06458064913749695,0.1371249556541443,0.03988155350089073,0.02008816599845886,-0.07751494646072388,XArbitraryZVertical,0.1711996665729672,-0.02794923782282604,-0.03852082468840921,0.9840862235454134,-0.04181941598653793,-0.3391037285327911,-0.9398190379142761,0,0,0,-1,-1,14654.606497,unknown,2,2021-04-05 21:19:52.106 -0400,2021-04-05 19:23:45.401 -0400,642,1.416612,0,0,471.0333,0,0,2021-04-05 21:19:49.536 -0400,639364802.4029833,0,-2.22,98.1931,1,0.7
2021-04-05 21:20:04.427 -0400,0,0,0,0,0,0,0,0,0,14666.92572641667,-0.0355224609375,-0.3495025634765625,-0.8936309814453125,14666.90059941667,-0.06459161365709047,-0.04229163291866755,0.3492164383546148,0.1016653627157211,0.1612718999385834,0.2057023048400879,0.01274957880377769,0.005110204219818115,-0.009380221366882324,XArbitraryZVertical,0.1729205351650478,-0.02642014754719918,-0.03546340861330607,0.9839425622208644,-0.0397271104156971,-0.3421616554260254,-0.9388009309768677,0,0,0,-1,-1,14654.606497,unknown,2,2021-04-05 21:19:52.106 -0400,2021-04-05 19:23:45.401 -0400,642,1.416612,0,0,471.0333,0,0,2021-04-05 21:19:49.536 -0400,639364802.4029833,0,-2.22,98.1931,1,0.7
2021-04-05 21:20:04.467 -0400,0,0,0,0,0,0,0,0,0,14666.96093241667,-0.0379180908203125,-0.3541107177734375,-0.9568939208984375,14666.93075041667,-0.05851166547160802,-0.04011010709243922,0.3498947336117788,-0.006638134829699993,0.05354170873761177,0.1847478449344635,0.002894915640354156,-0.007573425769805908,0.04372531175613403,XArbitraryZVertical,0.1733691864921567,-0.02482956457463286,-0.03228834138096517,0.9840142795037984,-0.03766968473792076,-0.3427989184856415,-0.9386532306671143,0,0,0,-1,-1,14654.606497,unknown,2,2021-04-05 21:19:52.106 -0400,2021-04-05 19:23:45.401 -0400,642,1.416612,0,0,471.0333,0,0,2021-04-05 21:19:49.536 -0400,639364802.4029833,0,-2.22,98.1931,1,0.7
2021-04-05 21:20:04.497 -0400,0,0,0,0,0,0,0,0,0,14666.99609941667,-0.0105438232421875,-0.3024444580078125,-1.031723022460938,14666.96093241667,-0.05417037937131337,-0.04168850765765925,0.3435975871757374,-0.2768584787845612,-0.1372461020946503,0.1018880382180214,-0.0004019327461719513,-0.0240854024887085,-0.001636743545532227,XArbitraryZVertical,0.1702989654532535,-0.02515715918625925,-0.03023926957883146,0.9846069812916658,-0.03924039751291275,-0.3368765711784363,-0.9407307505607605,0,0,0,-1,-1,14654.606497,unknown,2,2021-04-05 21:19:52.106 -0400,2021-04-05 19:23:45.401 -0400,642,1.416612,0,0,471.0333,0,0,2021-04-05 21:19:49.536 -0400,639364802.4029833,0,-2.22,98.1931,1,0.7
2021-04-05 21:20:04.537 -0400,0,0,0,0,0,0,0,0,0,14667.03133641667,-0.01141357421875,-0.2843017578125,-1.012802124023438,14667.02126541667,-0.04833056409913902,-0.05021954518440753,0.3297597633839139,-0.04317318648099899,-0.02581670321524143,0.2210614830255508,0.04540330171585083,0.03087744116783142,-0.0856817364692688,XArbitraryZVertical,0.1634357602093776,-0.0287241061284128,-0.02794744767446689,0.9857396377515493,-0.04749375581741333,-0.3238157331943512,-0.9449273347854614,0,0,0,-1,-1,14654.606497,unknown,2,2021-04-05 21:19:52.106 -0400,2021-04-05 19:23:45.401 -0400,642,1.416612,0,0,471.0333,0,0,2021-04-05 21:19:49.536 -0400,639364802.4029833,0,-2.22,98.1931,1,0.7
2021-04-05 21:20:04.567 -0400,0,0,0,0,0,0,0,0,0,14667.06650341667,-0.0459747314453125,-0.3011932373046875,-0.99041748046875,14667.05144741667,-0.03961048368081779,-0.05256845953738013,0.3313188594776466,0.09210711717605591,0.01199956890195608,0.3115563988685608,0.02867523580789566,0.03897446393966675,-0.06193292140960693,XArbitraryZVertical,0.1643001314300753,-0.02918092264170259,-0.02385907351066798,0.9856899709985342,-0.04968658834695816,-0.3252904415130615,-0.9443078637123108,0,0,0,-1,-1,14654.606497,unknown,2,2021-04-05 21:19:52.106 -0400,2021-04-05 19:23:45.401 -0400,642,1.416612,0,0,471.0333,0,0,2021-04-05 21:19:49.536 -0400,639364802.4029833,0,-2.22,98.1931,1,0.7
2021-04-05 21:20:04.608 -0400,0,0,0,0,0,0,0,0,0,14667.10170941667,-0.0472412109375,-0.288909912109375,-0.949371337890625,14667.08159841667,-0.03087148806801553,-0.05461623102737479,0.3348252464773624,0.1860776245594025,-0.004624804481863976,0.2219092696905136,0.002698991447687149,0.0248626172542572,-0.04462665319442749,XArbitraryZVertical,0.1661341847314874,-0.02949079766790544,-0.01976295311745163,0.9854638762396115,-0.05155762657523155,-0.328604131937027,-0.9430594444274902,0,0,0,-1,-1,14654.606497,unknown,2,2021-04-05 21:19:52.106 -0400,2021-04-05 19:23:45.401 -0400,642,1.416612,0,0,471.0333,0,0,2021-04-05 21:19:49.536 -0400,639364802.4029833,0,-2.22,98.1931,1,0.7
2021-04-05 21:20:04.638 -0400,0,0,0,0,0,0,0,0,0,14667.13690741667,-0.0506744384765625,-0.285797119140625,-0.9316864013671875,14667.11178041667,-0.02570660771513217,-0.05507593535629617,0.3376843321630944,0.1011525169014931,-0.01145349815487862,0.1176503375172615,0.004698015749454498,0.04239314794540405,-0.007277548313140869,XArbitraryZVertical,0.1676146291504673,-0.02929970762897382,-0.01729191875299475,0.9852654229819274,-0.0519392192363739,-0.3313030898571014,-0.9420937299728394,0,0,0,-1,-1,14654.606497,unknown,2,2021-04-05 21:19:52.106 -0400,2021-04-05 19:23:45.401 -0400,642,1.416612,0,0,471.0333,0,0,2021-04-05 21:19:49.536 -0400,639364802.4029833,0,-2.22,98.1931,1,0.7
2021-04-05 21:20:04.679 -0400,0,0,0,0,0,0,0,0,0,14667.17211441667,-0.04180908203125,-0.284759521484375,-0.93927001953125,14667.14193241667,-0.02348269331088748,-0.05612260330080691,0.3372870712905836,0.01923602819442749,-0.05211363732814789,0.04015117138624191,0.003662001341581345,0.04427656531333923,0.007966101169586182,XArbitraryZVertical,0.1674428776761926,-0.02962757578177901,-0.01627896669268941,0.9853020737339445,-0.05293263122439384,-0.330928236246109,-0.9421702027320862,0,0,0,-1,-1,14654.606497,unknown,2,2021-04-05 21:19:52.106 -0400,2021-04-05 19:23:45.401 -0400,642,1.416612,0,0,471.0333,0,0,2021-04-05 21:19:49.536 -0400,639364802.4029833,0,-2.22,98.1931,1,0.7
2021-04-05 21:20:04.709 -0400,0,0,0,0,0,0,0,0,0,14667.20731141667,-0.01806640625,-0.277923583984375,-0.96234130859375,14667.17211441667,-0.0231504254926889,-0.05704451492066092,0.3363264312463081,-0.00745971966534853,-0.009662827476859093,-0.00902137067168951,0.008042939007282257,0.04315629601478577,0.008523762226104736,XArbitraryZVertical,0.1669670312414356,-0.03005075463929831,-0.0161798880623121,0.9853715954882981,-0.05381930619478226,-0.3300215899944305,-0.9424379467964172,0,0,0,-1,-1,14654.606497,unknown,2,2021-04-05 21:19:52.106 -0400,2021-04-05 19:23:45.401 -0400,642,1.416612,0,0,471.0333,0,0,2021-04-05 21:19:49.536 -0400,639364802.4029833,0,-2.22,98.1931,1,0.7
2021-04-05 21:20:04.786 -0400,0,0,0,0,0,0,0,0,0,14667.24251841667,-0.00408935546875,-0.2781219482421875,-0.963714599609375,14667.23244741667,-0.02457284413578953,-0.05651867691648012,0.3300263887866884,-0.06158041208982468,-0.01741971634328365,0.01619626767933369,0.04140093550086021,0.04532039165496826,-0.02831614017486572,XArbitraryZVertical,0.1638449178251462,-0.02988702920952431,-0.0167554416037009,0.9858909776840238,-0.05344011634588242,-0.3240679800510406,-0.9445232152938843,0,0,0,-1,-1,14654.606497,unknown,2,2021-04-05 21:19:52.106 -0400,2021-04-05 19:23:45.401 -0400,642,1.416612,0,0,471.0333,0,0,2021-04-05 21:19:49.536 -0400,639364802.4029833,0,-2.22,98.1931,1,0.7
2021-04-05 21:20:04.825 -0400,0,0,0,0,0,0,0,0,0,14667.27768541667,-0.0258331298828125,-0.2926177978515625,-0.92547607421875,14667.26262941667,-0.02280257334268981,-0.05687577246448076,0.3277772479498827,-0.04273274540901184,0.03057784214615822,0.1003216803073883,0.04710483178496361,0.04546535015106201,-0.0009070634841918945,XArbitraryZVertical,0.1627595416135864,-0.02991061658892508,-0.01588260386125311,0.9860844161547336,-0.05381869524717331,-0.3219394087791443,-0.9452293515205383,0,0,0,-1,-1,14654.606497,unknown,2,2021-04-05 21:19:52.106 -0400,2021-04-05 19:23:45.401 -0400,642,1.416612,0,0,471.0333,0,0,2021-04-05 21:19:49.536 -0400,639364802.4029833,0,-2.22,98.1931,1,0.7
2021-04-05 21:20:04.831 -0400,0,0,0,0,0,0,0,0,0,14667.31289141667,-0.062652587890625,-0.3182830810546875,-0.924713134765625,14667.29278041667,-0.01900572415952206,-0.05578500699947445,0.3247016986203525,-0.04807199537754059,0.06044068932533264,0.1338800489902496,0.02154682204127312,0.01949602365493774,0.02200102806091309,XArbitraryZVertical,0.1613068742911831,-0.02905631282867756,-0.01388182626919193,0.9863788451680727,-0.05284259840846062,-0.3190260827541351,-0.9462716579437256,0,0,0,-1,-1,14654.606497,unknown,2,2021-04-05 21:19:52.106 -0400,2021-04-05 19:23:45.401 -0400,642,1.416612,0,0,471.0333,0,0,2021-04-05 21:19:49.536 -0400,639364802.4029833,0,-2.22,98.1931,1,0.7
2021-04-05 21:20:04.850 -0400,0,0,0,0,0,0,0,0,0,14667.34808941667,-0.047149658203125,-0.324371337890625,-0.8863525390625,14667.32296241667,-0.01631232596561883,-0.05314539048969036,0.3220126034453037,-0.03054778464138508,0.09668990969657898,0.05977115780115128,-0.01226257532835007,-0.001806795597076416,0.02254796028137207,XArbitraryZVertical,0.1600357524413835,-0.02753210936696247,-0.0123070117431313,0.9866504075118391,-0.05039000883698463,-0.3164763450622559,-0.9472610950469971,0,0,0,-1,-1,14654.606497,unknown,2,2021-04-05 21:19:52.106 -0400,2021-04-05 19:23:45.401 -0400,642,1.416612,0,0,471.0333,0,0,2021-04-05 21:19:49.536 -0400,639364802.4029833,0,-2.22,98.1931,1,0.7
2021-04-05 21:20:04.890 -0400,0,0,0,0,0,0,0,0,0,14667.38329541667,-0.04571533203125,-0.3420867919921875,-0.905975341796875,14667.35314441667,-0.01622910624224341,-0.04948743262153272,0.31997724302023,-0.04321377724409103,0.05312379822134972,-0.01850819960236549,-0.00446571409702301,-0.0101010799407959,0.05496829748153687,XArbitraryZVertical,0.1590547633827179,-0.02571671430247931,-0.01194969693397026,0.9868624436099888,-0.04695640504360199,-0.3145449459552765,-0.9480804800987244,0,0,0,-1,-1,14654.606497,unknown,2,2021-04-05 21:19:52.106 -0400,2021-04-05 19:23:45.401 -0400,642,1.416612,0,0,471.0333,0,0,2021-04-05 21:19:49.536 -0400,639364802.4029833,0,-2.22,98.1931,1,0.7
2021-04-05 21:20:04.920 -0400,0,0,0,0,0,0,0,0,0,14667.41849341667,-0.0292510986328125,-0.3431396484375,-0.9733428955078125,14667.38329541667,-0.01816120760812944,-0.04819740856858561,0.3179180424415931,-0.09254181385040283,-0.02652020938694477,-0.1015582978725433,0.0006899721920490265,-0.02507215738296509,0.05823653936386108,XArbitraryZVertical,0.158021911923399,-0.02522853514440234,-0.01277746332642229,0.9870305177199439,-0.04576443135738373,-0.3125896155834198,-0.9487851858139038,0,0,0,-1,-1,14654.606497,unknown,2,2021-04-05 21:19:52.106 -0400,2021-04-05 19:23:45.401 -0400,642,1.416612,0,0,471.0333,0,0,2021-04-05 21:19:49.536 -0400,639364802.4029833,0,-2.22,98.1931,1,0.7
2021-04-05 21:20:04.959 -0400,0,0,0,0,0,0,0,0,0,14667.45369941667,0.0015106201171875,-0.341644287109375,-1.006179809570312,14667.44362841667,-0.02992454260367031,-0.04236642129885528,0.3136364975691783,-0.08408284187316895,0.2161224335432053,-0.2050131559371948,0.01567522063851357,-0.03257527947425842,-0.04411190748214722,XArbitraryZVertical,0.155810748921602,-0.02325550896824271,-0.01808250224611026,0.9873475899537164,-0.04028764367103577,-0.3085197806358337,-0.9503644108772278,0,0,0,-1,-1,14654.606497,unknown,2,2021-04-05 21:19:52.106 -0400,2021-04-05 19:23:45.401 -0400,642,1.416612,0,0,471.0333,0,0,2021-04-05 21:19:49.536 -0400,639364802.4029833,0,-2.22,98.1931,1,0.7
2021-04-05 21:20:04.990 -0400,0,0,0,0,0,0,0,0,0,14667.48889741667,0.0121917724609375,-0.3482818603515625,-0.9550933837890625,14667.47381041667,-0.03596488445184717,-0.03407449532779453,0.317424188848658,0.1952302902936935,0.269917756319046,-0.1572051495313644,0.03172508627176285,-0.03918269276618958,-0.04115527868270874,XArbitraryZVertical,0.1576956314193034,-0.01966108064182367,-0.02044501071175524,0.98708037689791,-0.03236595541238785,-0.3121204674243927,-0.9494910836219788,0,0,0,-1,-1,14654.606497,unknown,2,2021-04-05 21:19:52.106 -0400,2021-04-05 19:23:45.401 -0400,642,1.416612,0,0,471.0333,0,0,2021-04-05 21:19:49.536 -0400,639364804.9804265,0,-2.21,98.19293,1,0.7
2021-04-05 21:20:05.030 -0400,0,0,0,0,0,0,0,0,0,14667.52410341667,0.0088043212890625,-0.36419677734375,-0.88836669921875,14667.50399241667,-0.03848709620328965,-0.0254208831770947,0.3250559836492966,0.2307848036289215,0.2438951432704926,-0.05226444825530052,0.03690445423126221,-0.03320777416229248,0.004776060581207275,XArbitraryZVertical,0.1615290248986246,-0.015653696309443,-0.02104352305595598,0.9865193597996795,-0.02408706955611706,-0.3193618357181549,-0.94732666015625,0,0,0,-1,-1,14667.48139041667,unknown,2,2021-04-05 21:20:04.981 -0400,2021-04-05 19:23:45.401 -0400,642,1.416612,0,0,471.0333,0,0,2021-04-05 21:19:49.536 -0400,639364804.9804265,0,-2.21,98.19293,1,0.7
2021-04-05 21:20:05.061 -0400,0,0,0,0,0,0,0,0,0,14667.55927141667,-0.005767822265625,-0.3729400634765625,-0.9055023193359375,14667.53414441667,-0.03975772689436954,-0.02012806479264072,0.3311201761883762,0.1375802457332611,0.0929863378405571,-0.03743039444088936,0.0278377253562212,-0.0390942394733429,0.05712056159973145,XArbitraryZVertical,0.1645665784418447,-0.01320004122930409,-0.02126300593401842,0.9860483730621425,-0.01903339847922325,-0.3251025676727295,-0.9454872012138367,0,0,0,-1,-1,14667.48139041667,unknown,2,2021-04-05 21:20:04.981 -0400,2021-04-05 19:23:45.401 -0400,642,1.416612,0,0,471.0333,0,0,2021-04-05 21:19:49.536 -0400,639364804.9804265,0,-2.21,98.19293,1,0.7
2021-04-05 21:20:05.101 -0400,0,0,0,0,0,0,0,0,0,14667.59447741667,-0.0155029296875,-0.3637847900390625,-0.934326171875,14667.56432541667,-0.0415212039994057,-0.01813213754038107,0.3339908492728847,0.07941713184118271,-0.02793953008949757,-0.07104048132896423,0.01206333003938198,-0.04518520832061768,0.03999954462051392,XArbitraryZVertical,0.1659920904958966,-0.01238834236905044,-0.02197610091654506,0.9858043668716261,-0.01712924614548683,-0.3278159499168396,-0.9445863366127014,0,0,0,-1,-1,14667.48139041667,unknown,2,2021-04-05 21:20:04.981 -0400,2021-04-05 19:23:45.401 -0400,642,1.416612,0,0,471.0333,0,0,2021-04-05 21:19:49.536 -0400,639364804.9804265,0,-2.21,98.19293,1,0.7
2021-04-05 21:20:05.132 -0400,0,0,0,0,0,0,0,0,0,14667.62967541667,-0.0298919677734375,-0.352935791015625,-0.9707489013671875,14667.59447741667,-0.04462851719406067,-0.01788602252306609,0.3373912716320394,0.09297558665275574,-0.07666474580764771,-0.09860923886299133,-0.001433808356523514,-0.03301766514778137,0.0182538628578186,XArbitraryZVertical,0.1676514296232628,-0.01255977796246672,-0.02349590174727202,0.9854862659043732,-0.01687673479318619,-0.3310265839099884,-0.9434704780578613,0,0,0,-1,-1,14667.48139041667,unknown,2,2021-04-05 21:20:04.981 -0400,2021-04-05 19:23:45.401 -0400,642,1.416612,0,0,471.0333,0,0,2021-04-05 21:19:49.536 -0400,639364804.9804265,0,-2.21,98.19293,1,0.7
2021-04-05 21:20:05.171 -0400,0,0,0,0,0,0,0,0,0,14667.664885375,-0.017333984375,-0.349945068359375,-0.965179443359375,14667.654845375,-0.05239849485935526,-0.01959779185876447,0.3457623767737894,0.09887181967496872,-0.02968764863908291,-0.1967190355062485,-0.01707043871283531,-0.01016134023666382,-0.02550405263900757,XArbitraryZVertical,0.1717011397655131,-0.01415545498276525,-0.02748952249151934,0.9846637594491778,-0.01843676157295704,-0.3389140367507935,-0.9406366944313049,0,0,0,-1,-1,14667.48139041667,unknown,2,2021-04-05 21:20:04.981 -0400,2021-04-05 19:23:45.401 -0400,642,1.416612,0,0,471.0333,0,0,2021-04-05 21:19:49.536 -0400,639364804.9804265,0,-2.21,98.19293,1,0.7
2021-04-05 21:20:05.201 -0400,0,0,0,0,0,0,0,0,0,14667.700083375,0.003265380859375,-0.346893310546875,-0.96429443359375,14667.684996375,-0.05938035556472095,-0.01754573746675473,0.3488902369369506,0.0617840588092804,-0.01147674769163132,-0.2118831872940063,0.01026222482323647,-0.006777763366699219,-0.02222973108291626,XArbitraryZVertical,0.173222066397292,-0.01378792753783777,-0.03075609353243737,0.9843058592149015,-0.01648780703544617,-0.3418551087379456,-0.9396080374717712,0,0,0,-1,-1,14667.48139041667,unknown,2,2021-04-05 21:20:04.981 -0400,2021-04-05 19:23:45.401 -0400,642,1.416612,0,0,471.0333,0,0,2021-04-05 21:19:49.536 -0400,639364804.9804265,0,-2.21,98.19293,1,0.7
2021-04-05 21:20:05.283 -0400,0,0,0,0,0,0,0,0,0,14667.735289375,-0.019683837890625,-0.3532562255859375,-0.9546966552734375,14667.715178375,-0.06651819182024904,-0.01610327005406072,0.35090273005721,0.05702589824795723,-0.04755713045597076,-0.2287508845329285,0.0136259701102972,-0.008442521095275879,-0.02773374319076538,XArbitraryZVertical,0.1741867813897016,-0.01372775892964849,-0.0341460414352298,0.9840246418822298,-0.0151213277131319,-0.3437456786632538,-0.9389410018920898,0,0,0,-1,-1,14667.48139041667,unknown,2,2021-04-05 21:20:04.981 -0400,2021-04-05 19:23:45.401 -0400,642,1.416612,0,0,471.0333,0,0,2021-04-05 21:19:49.536 -0400,639364804.9804265,0,-2.21,98.19293,1,0.7
2021-04-05 21:20:05.330 -0400,0,0,0,0,0,0,0,0,0,14667.770456375,-0.0100860595703125,-0.3551025390625,-0.9149169921875,14667.745329375,-0.07366638045582773,-0.01467374626194699,0.354178311322299,0.1841865926980972,0.01021420769393444,-0.2166276425123215,-0.005921353586018085,-0.006436467170715332,-0.01686578989028931,XArbitraryZVertical,0.1757748184631109,-0.01370424204972346,-0.0375395799163143,0.9836189692057153,-0.01376247964799404,-0.3468197882175446,-0.9378308057785034,0,0,0,-1,-1,14667.48139041667,unknown,2,2021-04-05 21:20:04.981 -0400,2021-04-05 19:23:45.401 -0400,642,1.416612,0,0,471.0333,0,0,2021-04-05 21:19:49.536 -0400,639364804.9804265,0,-2.21,98.19293,1,0.7
2021-04-05 21:20:05.335 -0400,0,0,0,0,0,0,0,0,0,14667.805693375,-0.0382537841796875,-0.3481597900390625,-0.994171142578125,14667.775511375,-0.07966068444958897,-0.0123223549416135,0.359621604622094,0.1291332989931107,-0.02084695920348167,-0.1601351499557495,0.003446650691330433,-0.002495855093002319,0.01660174131393433,XArbitraryZVertical,0.1784568203072566,-0.01317837572890024,-0.04027808194893438,0.9830346327817574,-0.01153380237519741,-0.3519200682640076,-0.9359589815139771,0,0,0,-1,-1,14667.48139041667,unknown,2,2021-04-05 21:20:04.981 -0400,2021-04-05 19:23:45.401 -0400,642,1.416612,0,0,471.0333,0,0,2021-04-05 21:19:49.536 -0400,639364804.9804265,0,-2.21,98.19293,1,0.7
2021-04-05 21:20:05.343 -0400,0,0,0,0,0,0,0,0,0,14667.840860375,-0.047027587890625,-0.318328857421875,-1.032928466796875,14667.835844375,-0.09068434549468246,-0.01330294587529814,0.3568799700646007,0.01015685778111219,-0.02829072065651417,-0.187071904540062,-0.03872885182499886,0.01082095503807068,-0.1072046160697937,XArbitraryZVertical,0.1770115024730951,-0.01458413726226129,-0.04578532416483793,0.9830350387374177,-0.01246437802910805,-0.3493525087833405,-0.936908483505249,0,0,0,-1,-1,14667.48139041667,unknown,2,2021-04-05 21:20:04.981 -0400,2021-04-05 19:23:45.401 -0400,642,1.416612,0,0,471.0333,0,0,2021-04-05 21:19:49.536 -0400,639364804.9804265,0,-2.21,98.19293,1,0.7
2021-04-05 21:20:05.382 -0400,0,0,0,0,0,0,0,0,0,14667.876066375,-0.04254150390625,-0.30426025390625,-0.969024658203125,14667.866026375,-0.09592088896607313,-0.01145607895535867,0.3600832673107537,0.1370250135660172,-0.004697753582149744,-0.1292493790388107,-0.02898222580552101,0.04386517405509949,-0.07057207822799683,XArbitraryZVertical,0.1785915128511595,-0.01421381079916788,-0.04819089935787609,0.9826396658235866,-0.01072113774716854,-0.3523521721363068,-0.9358060956001282,0,0,0,-1,-1,14667.48139041667,unknown,2,2021-04-05 21:20:04.981 -0400,2021-04-05 19:23:45.401 -0400,642,1.416612,0,0,471.0333,0,0,2021-04-05 21:19:49.536 -0400,639364804.9804265,0,-2.21,98.19293,1,0.7
2021-04-05 21:20:05.413 -0400,0,0,0,0,0,0,0,0,0,14667.911264375,-0.0455322265625,-0.3282318115234375,-0.9174957275390625,14667.896178375,-0.09889004072965157,-0.01087182197883917,0.3645631826849725,0.1870988011360168,-0.01796791702508926,-0.07588568329811096,-0.03056858107447624,0.04263734817504883,-0.01896160840988159,XArbitraryZVertical,0.1807853914134022,-0.01429859579697921,-0.04958949607457593,0.9821675742307228,-0.01015712134540081,-0.3565412163734436,-0.9342243671417236,0,0,0,-1,-1,14667.48139041667,unknown,2,2021-04-05 21:20:04.981 -0400,2021-04-05 19:23:45.401 -0400,642,1.416612,0,0,471.0333,0,0,2021-04-05 21:19:49.536 -0400,639364804.9804265,0,-2.21,98.19293,1,0.7
2021-04-05 21:20:05.452 -0400,0,0,0,0,0,0,0,0,0,14667.946471375,-0.0659332275390625,-0.328216552734375,-0.892059326171875,14667.926359375,-0.1008029794504481,-0.01190786147889869,0.3693374845542484,0.1915174573659897,-0.0224064439535141,-0.08657605201005936,-0.03773876279592514,0.03215545415878296,0.02310729026794434,XArbitraryZVertical,0.1830896284795021,-0.01509591540126747,-0.05061453866152099,0.9816763756082476,-0.01110461261123419,-0.3609976768493652,-0.9325006008148193,0,0,0,-1,-1,14667.48139041667,unknown,2,2021-04-05 21:20:04.981 -0400,2021-04-05 19:23:45.401 -0400,642,1.416612,0,0,471.0333,0,0,2021-04-05 21:19:49.536 -0400,639364804.9804265,0,-2.21,98.19293,1,0.7
