loggingTime,loggingSample,locationTimestamp_since1970,locationLatitude,locationLongitude,locationAltitude,locationSpeed,locationCourse,locationVerticalAccuracy,locationHorizontalAccuracy,locationFloor,locationHeadingTimestamp_since1970,locationHeadingX,locationHeadingY,locationHeadingZ,locationTrueHeading,locationMagneticHeading,locationHeadingAccuracy,accelerometerTimestamp_sinceReboot,accelerometerAccelerationX,accelerometerAccelerationY,accelerometerAccelerationZ,gyroTimestamp_sinceReboot,gyroRotationX,gyroRotationY,gyroRotationZ,magnetometerTimestamp_sinceReboot,magnetometerX,magnetometerY,magnetometerZ,motionTimestamp_sinceReboot,motionYaw,motionRoll,motionPitch,motionRotationRateX,motionRotationRateY,motionRotationRateZ,motionUserAccelerationX,motionUserAccelerationY,motionUserAccelerationZ,motionAttitudeReferenceFrame,motionQuaternionX,motionQuaternionY,motionQuaternionZ,motionQuaternionW,motionGravityX,motionGravityY,motionGravityZ,motionMagneticFieldX,motionMagneticFieldY,motionMagneticFieldZ,motionHeading,motionMagneticFieldCalibrationAccuracy,activityTimestamp_sinceReboot,activity,activityActivityConfidence,activityActivityStartDate,pedometerStartDate,pedometerNumberofSteps,pedometerAverageActivePace,pedometerCurrentPace,pedometerCurrentCadence,pedometerDistance,pedometerFloorAscended,pedometerFloorDescended,pedometerEndDate,altimeterTimestamp_sinceReboot,altimeterReset,altimeterRelativeAltitude,altimeterPressure,IP_Timestamp_since1970,IP_en0,IP_pdp_ip0,deviceID,deviceOrientationTimeStamp_since1970,deviceOrientation,batteryTimeStamp_since1970,batteryState,batteryLevel,avAudioRecorder_Timestamp_since1970,avAudioRecorderPeakPower,avAudioRecorderAveragePower,label
1617673715.265236,1,0,0,0,0,0,0,0,0,0,1617673715.245728,0.6989650726318359,16.84043121337891,-36.97856140136719,343.5855102539062,350.6138610839844,16.70128440856934,1047917.657005,-0.0128936767578125,-0.07440185546875,-1.008499145507812,1047917.635835,0.3229783177375793,0.3048680126667023,-0.03743259236216545,1047917.628017,12.04917907714844,51.54736328125,-107.40087890625,1047917.605948,-0.2391993161927366,-0.01414147013230535,0.05265646372700261,0.3907460272312164,-0.008370639756321907,-0.01216343138366938,-0.003655100241303444,0.0215500146150589,-0.0003872513771057129,2,0.02529314033469972,-0.01015863921872733,-0.1194552167146206,0.9924653103522085,-0.01412139926105738,-0.05263213440775871,-0.9985141158103943,0.5899724960327148,17.25681686401367,-36.92630767822266,-1,2,1047878.184514417,1,2,1617673675.773684,1617673410.617,47,1.531854,0,0,29.99327,0,0,1617673549.220759,1047914.809619,0,-0.7821045,98.1646,0,0,0,0,0,1,1617673715.230588,1,0.11,1617673715.2497,-20.02575,-27.58795,0
1617673715.295245,2,0,0,0,0,0,0,0,0,0,1617673715.285679,1.047823905944824,16.3422966003418,-37.16419982910156,343.69287109375,350.7212219238281,16.7017707824707,1047917.690627,-0.0034332275390625,-0.05010986328125,-1.046356201171875,1047917.669457,0.172600269317627,0.1508883088827133,-0.05474713444709778,1047917.688002,12.59202575683594,50.9332275390625,-107.7259216308594,1047917.665722,-0.2407289293418053,-0.001411636226541896,0.07064436461359823,0.1676930487155914,0.1754348129034042,-0.04672670364379883,-0.008708469569683075,0.002806119620800018,-0.02451366186141968,2,0.03497462833991113,-0.004940669366588237,-0.1200238672681694,0.9921423921151515,-0.001408114796504378,-0.07058561593294144,-0.997504711151123,0.941035270690918,16.45302963256836,-37.12552642822266,-1,2,1047878.184514417,1,2,1617673675.773684,1617673410.617,47,1.531854,0,0,29.99327,0,0,1617673549.220759,1047914.809619,0,-0.7821045,98.1646,0,0,0,0,0,1,1617673715.230588,1,0.11,1617673715.278276,-20.02575,-27.90193,0
1617673715.340354,3,0,0,0,0,0,0,0,0,0,1617673715.325552,1.130599975585938,16.14931488037109,-37.67385864257812,343.9629211425781,350.9912719726562,16.7022590637207,1047917.724251,0.0048675537109375,-0.0598602294921875,-1.022781372070312,1047917.703079,0.1544249951839447,-0.03201226145029068,-0.1262668520212173,1047917.688002,12.59202575683594,50.9332275390625,-107.7259216308594,1047917.665722,-0.2407289293418053,-0.001411636226541896,0.07064436461359823,0.1676930487155914,0.1754348129034042,-0.04672670364379883,-0.008708469569683075,0.002806119620800018,-0.02451366186141968,2,0.03497462833991113,-0.004940669366588237,-0.1200238672681694,0.9921423921151515,-0.001408114796504378,-0.07058561593294144,-0.997504711151123,0.941035270690918,16.45302963256836,-37.12552642822266,-1,2,1047917.714726,2,0,1617673715.303895,1617673410.617,47,1.531854,0,0,29.99327,0,0,1617673549.220759,1047914.809619,0,-0.7821045,98.1646,0,0,0,0,0,1,1617673715.230588,1,0.11,1617673715.311375,-20.02575,-28.12323,0
1617673715.365108,4,0,0,0,0,0,0,0,0,0,1617673715.345246,1.092093467712402,15.99772644042969,-37.60311126708984,344.1224670410156,351.1508178710938,16.70250129699707,1047917.757873,0.00274658203125,-0.0978851318359375,-0.9794921875,1047917.736703,0.2251423001289368,-0.03145059943199158,-0.1348331868648529,1047917.747984,12.40496826171875,50.62821960449219,-107.958984375,1047917.725496,-0.2470962207483922,-8.780511222272649e-05,0.0796569064860991,0.1788677573204041,-0.04459656774997711,-0.1459325700998306,0.004955071955919266,0.01971250027418137,-0.02595227956771851,2,0.03950900965318079,-0.004950456420694756,-0.1231380400453903,0.9915904594693119,-8.75266850925982e-05,-0.07957269251346588,-0.9968290328979492,1.137351036071777,16.02240371704102,-37.72882080078125,-1,2,1047917.714726,2,0,1617673715.303895,1617673410.617,47,1.531854,0,0,29.99327,0,0,1617673549.220759,1047914.809619,0,-0.7821045,98.1646,0,0,0,0,0,1,1617673715.230588,1,0.11,1617673715.34409,-20.02575,-28.17255,0
1617673715.396568,5,0,0,0,0,0,0,0,0,0,1617673715.385153,1.030774116516113,15.89491653442383,-37.86631774902344,344.3153686523438,351.3437194824219,16.70298957824707,1047917.791495,-0.0138092041015625,-0.1047821044921875,-0.974517822265625,1047917.770325,0.2159203141927719,0.1379115283489227,-0.06067559868097305,1047917.747984,12.40496826171875,50.62821960449219,-107.958984375,1047917.725496,-0.2470962207483922,-8.780511222272649e-05,0.0796569064860991,0.1788677573204041,-0.04459656774997711,-0.1459325700998306,0.004955071955919266,0.01971250027418137,-0.02595227956771851,2,0.03950900965318079,-0.004950456420694756,-0.1231380400453903,0.9915904594693119,-8.75266850925982e-05,-0.07957269251346588,-0.9968290328979492,1.137351036071777,16.02240371704102,-37.72882080078125,-1,2,1047917.714726,2,0,1617673715.303895,1617673410.617,47,1.531854,0,0,29.99327,0,0,1617673549.220759,1047914.809619,0,-0.7821045,98.1646,0,0,0,0,0,1,1617673715.230588,1,0.11,1617673715.387297,-20.02575,-27.62405,0
1617673715.434939,6,0,0,0,0,0,0,0,0,0,1617673715.425186,1.313559532165527,15.51905059814453,-37.7327880859375,344.3366088867188,351.3649597167969,16.70279502868652,1047917.825119,0.0027008056640625,-0.094207763671875,-1.002105712890625,1047917.80395,0.3000708818435669,0.2593277096748352,0.001646898803301156,1047917.807975,12.69001770019531,50.23248291015625,-108.0456695556641,1047917.78527,-0.252664369727068,0.003751730230371114,0.09221357477156934,0.2291046679019928,0.2167623192071915,-0.02203705161809921,-0.01408125087618828,-0.01095962524414062,0.03222811222076416,2,0.0459591633980157,-0.00394828399809579,-0.1257765169391765,0.9909856216858208,0.003735781647264957,-0.09208294004201889,-0.9957443475723267,1.003273010253906,15.80315017700195,-37.94431304931641,-1,2,1047917.714726,2,0,1617673715.303895,1617673410.617,47,1.531854,0,0,29.99327,0,0,1617673549.220759,1047914.809619,0,-0.7821045,98.1646,0,0,0,0,0,1,1617673715.230588,1,0.11,1617673715.411649,-20.02575,-28.20963,0
1617673715.464672,7,0,0,0,0,0,0,0,0,0,1617673715.444881,1.48960018157959,15.31027221679688,-38.14253234863281,344.3711547851562,351.3995056152344,16.70303726196289,1047917.858741,0.0182647705078125,-0.110748291015625,-0.99127197265625,1047917.837572,0.32038414478302,0.2161490768194199,-0.04807405173778534,1047917.807975,12.69001770019531,50.23248291015625,-108.0456695556641,1047917.845044,-0.2537776543863262,0.01764682686085645,0.1089681660844651,0.2793916165828705,0.1914057582616806,-0.05388552322983742,-0.003915160894393921,0.01164574921131134,0.00459522008895874,2,0.05513213426146423,0.00184817027635039,-0.1258792681280034,0.9905106982876453,0.01754125021398067,-0.1087526455521584,-0.9939140677452087,1.560466766357422,15.22582244873047,-38.15580749511719,-1,2,1047917.714726,2,0,1617673715.303895,1617673410.617,47,1.531854,0,0,29.99327,0,0,1617673549.220759,1047914.809619,0,-0.7821045,98.1646,0,0,0,0,0,1,1617673715.230588,1,0.11,1617673715.456866,-20.02575,-27.80267,0
1617673715.494462,8,0,0,0,0,0,0,0,0,0,1617673715.485119,1.750643730163574,14.86325454711914,-38.12067413330078,344.4609069824219,351.4892578125,16.70352554321289,1047917.892364,0.0367889404296875,-0.120697021484375,-1.028823852539062,1047917.871194,0.1002688109874725,0.1236335262656212,-0.0180588960647583,1047917.867958,13.11740112304688,49.51875305175781,-108.5917053222656,1047917.845044,-0.2537776543863262,0.01764682686085645,0.1089681660844651,0.2793916165828705,0.1914057582616806,-0.05388552322983742,-0.003915160894393921,0.01164574921131134,0.00459522008895874,2,0.05513213426146423,0.00184817027635039,-0.1258792681280034,0.9905106982876453,0.01754125021398067,-0.1087526455521584,-0.9939140677452087,1.560466766357422,15.22582244873047,-38.15580749511719,-1,2,1047917.714726,2,0,1617673715.303895,1617673410.617,47,1.531854,0,0,29.99327,0,0,1617673549.220759,1047914.809619,0,-0.7821045,98.1646,0,0,0,0,0,1,1617673715.230588,1,0.11,1617673715.478111,-20.02575,-25.85696,0
1617673715.534354,9,0,0,0,0,0,0,0,0,0,1617673715.52483,1.839421272277832,14.8178596496582,-38.39636993408203,344.4164733886719,351.44482421875,16.70401191711426,1047917.925988,0.016845703125,-0.0952606201171875,-1.001251220703125,1047917.904818,-0.0821654424071312,-0.1875350028276443,0.02099742740392685,1047917.927948,13.18557739257812,49.46670532226562,-108.6620635986328,1047917.904818,-0.2545010802347246,0.02064882858122725,0.1135371811470345,-0.09335445612668991,-0.1927997022867203,0.02286431938409805,0.01046090945601463,0.001980572938919067,-0.03078961372375488,2,0.05758446666404403,0.003024156181896127,-0.1261151735230681,0.9903381944300094,0.02051442489027977,-0.1132934093475342,-0.9933497905731201,1.848162651062012,14.86507034301758,-38.41910552978516,-1,2,1047917.714726,2,0,1617673715.303895,1617673410.617,47,1.531854,0,0,29.99327,0,0,1617673549.220759,1047914.809619,0,-0.7821045,98.1646,0,0,0,0,0,1,1617673715.230588,1,0.11,1617673715.518329,-20.02575,-27.12645,0
1617673715.566913,10,0,0,0,0,0,0,0,0,0,1617673715.564361,1.495973587036133,15.02033615112305,-38.24653625488281,344.5076599121094,351.5360107421875,16.70449829101562,1047917.95961,0.006500244140625,-0.1038970947265625,-0.977294921875,1047917.93844,-0.1438032388687134,-0.3022147119045258,-0.05173696205019951,1047917.927948,13.18557739257812,49.46670532226562,-108.6620635986328,1047917.904818,-0.2545010802347246,0.02064882858122725,0.1135371811470345,-0.09335445612668991,-0.1927997022867203,0.02286431938409805,0.01046090945601463,0.001980572938919067,-0.03078961372375488,2,0.05758446666404403,0.003024156181896127,-0.1261151735230681,0.9903381944300094,0.02051442489027977,-0.1132934093475342,-0.9933497905731201,1.848162651062012,14.86507034301758,-38.41910552978516,-1,2,1047917.714726,2,0,1617673715.303895,1617673410.617,47,1.531854,0,0,29.99327,0,0,1617673549.220759,1047914.809619,0,-0.7821045,98.1646,0,0,0,0,0,1,1617673715.230588,1,0.11,1617673715.544126,-20.02575,-27.69228,0
1617673715.604165,11,0,0,0,0,0,0,0,0,0,1617673715.584433,1.32453727722168,15.02047729492188,-38.31229400634766,344.5586853027344,351.5870361328125,16.70474243164062,1047917.993234,0.0272369384765625,-0.1263275146484375,-1.007293701171875,1047917.972062,-0.06223967298865318,-0.1633878648281097,-0.04464469850063324,1047917.987944,12.6434326171875,49.68466186523438,-108.5410766601562,1047917.964592,-0.2561200986211647,0.005084700673585953,0.1054129163669787,-0.1063288375735283,-0.1920723617076874,-0.0476011335849762,0.002084649633616209,0.0009697973728179932,0.01262485980987549,2,0.05257473899166408,-0.004209993527342439,-0.1273997262058997,0.990448075353187,0.005056454800069332,-0.1052177995443344,-0.9944363236427307,1.402143478393555,15.01059722900391,-38.33315277099609,-1,2,1047917.714726,2,0,1617673715.303895,1617673410.617,47,1.531854,0,0,29.99327,0,0,1617673549.220759,1047914.809619,0,-0.7821045,98.1646,0,0,0,0,0,1,1617673715.230588,1,0.11,1617673715.578602,-20.02575,-28.69625,0
1617673715.636644,12,0,0,0,0,0,0,0,0,0,1617673715.624327,0.9975881576538086,15.30360412597656,-38.24152374267578,344.4403381347656,351.4686889648438,16.70428657531738,1047918.026856,-0.021484375,-0.102783203125,-0.957244873046875,1047918.005687,0.07196234166622162,-0.2399388253688812,0.1050734221935272,1047917.987944,12.6434326171875,49.68466186523438,-108.5410766601562,1047917.964592,-0.2561200986211647,0.005084700673585953,0.1054129163669787,-0.1063288375735283,-0.1920723617076874,-0.0476011335849762,0.002084649633616209,0.0009697973728179932,0.01262485980987549,2,0.05257473899166408,-0.004209993527342439,-0.1273997262058997,0.990448075353187,0.005056454800069332,-0.1052177995443344,-0.9944363236427307,1.402143478393555,15.01059722900391,-38.33315277099609,-1,2,1047917.714726,2,0,1617673715.303895,1617673410.617,47,1.531854,0,0,29.99327,0,0,1617673549.220759,1047914.809619,0,-0.7821045,98.1646,0,0,0,0,0,1,1617673715.230588,1,0.11,1617673715.611408,-20.02575,-29.06639,0
1617673715.664002,13,0,0,0,0,0,0,0,0,0,1617673715.644345,0.9160938262939453,15.25232315063477,-38.09073638916016,344.327392578125,351.3557434082031,16.70406532287598,1047918.060478,-0.005859375,-0.104400634765625,-1.011215209960938,1047918.039309,0.1297627836465836,0.04165077209472656,0.02366005629301071,1047918.047935,12.33303833007812,49.79417419433594,-108.4610137939453,1047918.024366,-0.2539519359305815,-0.004775692688042341,0.1058107598898662,0.1105859354138374,-0.08220621943473816,0.1414810568094254,-0.01685748621821404,-0.002891786396503448,0.026012122631073,2,0.05215287269198454,-0.009061838654548088,-0.1265827582447124,0.9905425969682219,-0.004748965613543987,-0.1056134253740311,-0.994395911693573,0.9378290176391602,15.25967407226562,-38.17056274414062,-1,2,1047918.03367,1,2,1617673715.622839,1617673410.617,47,1.531854,0,0,29.99327,0,0,1617673549.220759,1047914.809619,0,-0.7821045,98.1646,0,0,0,0,0,1,1617673715.230588,1,0.11,1617673715.644834,-20.02575,-29.93996,0
1617673715.703451,14,0,0,0,0,0,0,0,0,0,1617673715.683944,0.9043397903442383,15.06657028198242,-38.26746368408203,344.2611694335938,351.2895202636719,16.70363426208496,1047918.094103,-0.0072021484375,-0.09783935546875,-1.004806518554688,1047918.072933,0.1388934403657913,-0.02986575290560722,0.0465824156999588,1047918.047935,12.33303833007812,49.79417419433594,-108.4610137939453,1047918.08414,-0.2514781756254724,-0.004270607171383,0.1132793458357805,0.1013970896601677,-0.05958099663257599,0.01558955293148756,0.002229053527116776,0.01498429477214813,-0.01317793130874634,2,0.05589499593529643,-0.009214303690922115,-0.1253265584902127,0.9904968656729553,-0.004243222996592522,-0.1130372285842896,-0.9935817122459412,0.9221611022949219,15.08858489990234,-38.33221435546875,-1,2,1047918.03367,1,2,1617673715.622839,1617673410.617,47,1.531854,0,0,29.99327,0,0,1617673549.220759,1047914.809619,0,-0.7821045,98.1646,0,0,0,0,0,1,1617673715.230588,1,0.11,1617673715.687507,-20.02575,-30.59904,0
1617673715.733741,15,0,0,0,0,0,0,0,0,0,1617673715.723844,0.8978958129882812,15.03840637207031,-38.26969146728516,344.2812194824219,351.3095703125,16.70321846008301,1047918.127725,-0.0145263671875,-0.1069793701171875,-0.999267578125,1047918.106555,0.04048644006252289,-0.08735141903162003,-0.02553172595798969,1047918.107921,12.34864807128906,49.62771606445312,-108.7188415527344,1047918.08414,-0.2514781756254724,-0.004270607171383,0.1132793458357805,0.1013970896601677,-0.05958099663257599,0.01558955293148756,0.002229053527116776,0.01498429477214813,-0.01317793130874634,2,0.05589499593529643,-0.009214303690922115,-0.1253265584902127,0.9904968656729553,-0.004243222996592522,-0.1130372285842896,-0.9935817122459412,0.9221611022949219,15.08858489990234,-38.33221435546875,-1,2,1047918.03367,1,2,1617673715.622839,1617673410.617,47,1.531854,0,0,29.99327,0,0,1617673549.220759,1047914.809619,0,-0.7821045,98.1646,0,0,0,0,0,1,1617673715.230588,1,0.11,1617673715.711531,-20.02575,-30.31922,0
1617673715.763286,16,0,0,0,0,0,0,0,0,0,1617673715.743729,0.8208990097045898,14.94694519042969,-38.44793701171875,344.2941589355469,351.322509765625,16.7030143737793,1047918.161347,-0.0183868408203125,-0.101898193359375,-0.9713134765625,1047918.140177,0.009216668084263802,-0.09998571872711182,-0.02372903190553188,1047918.107921,12.34864807128906,49.62771606445312,-108.7188415527344,1047918.143914,-0.2522793528602868,-0.009936980807363677,0.1143398661290902,0.003790144808590412,-0.1089803427457809,-0.02922024205327034,-0.004608664661645889,0.01094150543212891,-0.001390755176544189,2,0.05606008730137946,-0.01210922577796402,-0.1258799923802725,0.9903861797496655,-0.009871932677924633,-0.1140908896923065,-0.9934212565422058,0.7506217956542969,15.01754379272461,-38.51441192626953,-1,2,1047918.03367,1,2,1617673715.622839,1617673410.617,47,1.531854,0,0,29.99327,0,0,1617673549.220759,1047914.809619,0,-0.7821045,98.1646,0,0,0,0,0,1,1617673715.230588,1,0.11,1617673715.756573,-20.02575,-29.8579,0
1617673715.806706,17,0,0,0,0,0,0,0,0,0,1617673715.803579,0.5948419570922852,15.16236877441406,-38.53052520751953,344.4360046386719,351.46435546875,16.70242500305176,1047918.194971,-0.0205078125,-0.1264801025390625,-0.9674072265625,1047918.173801,0.02834056131541729,0.003808320267125964,-0.06348070502281189,1047918.167915,12.10841369628906,49.64306640625,-108.8545989990234,1047918.143914,-0.2522793528602868,-0.009936980807363677,0.1143398661290902,0.003790144808590412,-0.1089803427457809,-0.02922024205327034,-0.004608664661645889,0.01094150543212891,-0.001390755176544189,2,0.05606008730137946,-0.01210922577796402,-0.1258799923802725,0.9903861797496655,-0.009871932677924633,-0.1140908896923065,-0.9934212565422058,0.7506217956542969,15.01754379272461,-38.51441192626953,-1,2,1047918.03367,1,2,1617673715.622839,1617673410.617,47,1.531854,0,0,29.99327,0,0,1617673549.220759,1047915.759981,0,-0.7821045,98.1646,0,0,0,0,0,1,1617673715.230588,1,0.11,1617673715.778238,-20.02575,-30.36064,0
1617673715.833215,18,0,0,0,0,0,0,0,0,0,1617673715.823512,0.6699886322021484,15.08034515380859,-38.49961853027344,344.4268188476562,351.4551696777344,16.70223426818848,1047918.228593,-0.014892578125,-0.111907958984375,-1.018112182617188,1047918.207424,0.05335989594459534,0.144244521856308,0.005956692155450583,1047918.227907,12.17620849609375,49.64874267578125,-108.8280029296875,1047918.203689,-0.2546153951283021,-0.009635109465315983,0.1147677005654985,0.04267114400863647,0.1311704367399216,0.003013231791555882,-0.008540615439414978,-0.01010257750749588,0.02685308456420898,2,0.05627692363581403,-0.01205229161176367,-0.1270277068933655,0.9902279932874118,-0.009571575559675694,-0.1145159229636192,-0.993375301361084,0.6136817932128906,15.13377380371094,-38.57440185546875,-1,2,1047918.03367,1,2,1617673715.622839,1617673410.617,47,1.531854,0,0,29.99327,0,0,1617673549.220759,1047915.759981,0,-0.7821045,98.1646,0,0,0,0,0,1,1617673715.230588,1,0.11,1617673715.818457,-20.02575,-29.25978,0
1617673715.879286,19,0,0,0,0,0,0,0,0,0,1617673715.863471,0.7891855239868164,14.95291519165039,-38.52603149414062,344.4606628417969,351.489013671875,16.70186424255371,1047918.262218,-0.0201873779296875,-0.1162261962890625,-0.9937591552734375,1047918.241046,0.06717264652252197,-0.0002029328752541915,-0.02542626485228539,1047918.227907,12.17620849609375,49.64874267578125,-108.8280029296875,1047918.203689,-0.2546153951283021,-0.009635109465315983,0.1147677005654985,0.04267114400863647,0.1311704367399216,0.003013231791555882,-0.008540615439414978,-0.01010257750749588,0.02685308456420898,2,0.05627692363581403,-0.01205229161176367,-0.1270277068933655,0.9902279932874118,-0.009571575559675694,-0.1145159229636192,-0.993375301361084,0.6136817932128906,15.13377380371094,-38.57440185546875,-1,2,1047918.03367,1,2,1617673715.622839,1617673410.617,47,1.531854,0,0,29.99327,0,0,1617673549.220759,1047915.759981,0,-0.7821045,98.1646,0,0,0,0,0,1,1617673715.230588,1,0.11,1617673715.879266,-20.02575,-30.23455,0
1617673715.902934,20,0,0,0,0,0,0,0,0,0,1617673715.883351,0.7683296203613281,14.86293411254883,-38.55207824707031,344.4992980957031,351.5276489257812,16.70168304443359,1047918.29584,-0.0091552734375,-0.1248779296875,-1.020156860351562,1047918.27467,0.01739896461367607,-0.004687962587922812,-0.02766624838113785,1047918.287895,12.17524719238281,49.45869445800781,-108.8867645263672,1047918.263463,-0.2552655435037309,-0.007700973758636409,0.1171427026274844,0.01699060201644897,-0.01108132768422365,-0.0442967601120472,-0.01253926381468773,0.0006488189101219177,-0.000641942024230957,2,0.05757201787565971,-0.01126363586450354,-0.1272908827176261,0.9901290667896184,-0.007648120634257793,-0.1168749704957008,-0.9931172132492065,0.8210210800170898,14.87108993530273,-38.56075286865234,-1,2,1047918.03367,1,2,1617673715.622839,1617673410.617,47,1.531854,0,0,29.99327,0,0,1617673549.220759,1047915.759981,0,-0.7821045,98.1646,0,0,0,0,0,1,1617673715.230588,1,0.11,1617673715.879266,-20.02575,-30.23455,0
1617673715.937041,21,0,0,0,0,0,0,0,0,0,1617673715.923297,0.7048406600952148,14.89968872070312,-38.61835479736328,344.5098876953125,351.5382385253906,16.70132637023926,1047918.329462,-0.018035888671875,-0.126708984375,-0.994537353515625,1047918.308292,0.0237420815974474,-0.06016506999731064,-0.007076285313814878,1047918.287895,12.17524719238281,49.45869445800781,-108.8867645263672,1047918.263463,-0.2552655435037309,-0.007700973758636409,0.1171427026274844,0.01699060201644897,-0.01108132768422365,-0.0442967601120472,-0.01253926381468773,0.0006488189101219177,-0.000641942024230957,2,0.05757201787565971,-0.01126363586450354,-0.1272908827176261,0.9901290667896184,-0.007648120634257793,-0.1168749704957008,-0.9931172132492065,0.8210210800170898,14.87108993530273,-38.56075286865234,-1,2,1047918.03367,1,2,1617673715.622839,1617673410.617,47,1.531854,0,0,29.99327,0,0,1617673549.220759,1047915.759981,0,-0.7821045,98.1646,0,0,0,0,0,1,1617673715.230588,1,0.11,1617673715.911439,-20.02575,-30.76474,0
1617673715.972824,22,0,0,0,0,0,0,0,0,0,1617673715.962939,0.5574970245361328,14.93620300292969,-38.38259124755859,344.5023803710938,351.5307312011719,16.70098495483398,1047918.363086,-0.0210418701171875,-0.129638671875,-0.9807281494140625,1047918.341916,-0.002345446031540632,-0.05356602370738983,0.0007872303831391037,1047918.347883,12.04684448242188,49.47244262695312,-108.869873046875,1047918.323237,-0.2559126346223261,-0.01081460915296269,0.1177668710643814,0.0008097682148218155,-0.05567995458841324,0.0003553964197635651,-0.008379782550036907,-0.01093833893537521,-0.0004842877388000488,2,0.05767863781076717,-0.01286328977608665,-0.1277000233150942,0.9900507403734229,-0.01073949225246906,-0.1174948439002037,-0.9930154085159302,0.6671590805053711,14.85259246826172,-38.562255859375,-1,2,1047918.03367,1,2,1617673715.622839,1617673410.617,47,1.531854,0,0,29.99327,0,0,1617673549.220759,1047915.759981,0,-0.7821045,98.1646,0,0,0,0,0,1,1617673715.230588,1,0.11,1617673715.944631,-20.02575,-31.10927,0
1617673716.002514,23,0,0,0,0,0,0,0,0,0,1617673715.983008,0.5117835998535156,14.99447631835938,-38.49481964111328,344.4797058105469,351.508056640625,16.70081520080566,1047918.396708,-0.010284423828125,-0.1235504150390625,-1.01336669921875,1047918.375538,0.002458097646012902,0.03471403941512108,0.02625210955739021,1047918.347883,12.04684448242188,49.47244262695312,-108.869873046875,1047918.383011,-0.2552311939716304,-0.01254149205663778,0.1170326914764468,-0.004217582289129496,0.03434734418988228,0.03316280245780945,-0.002910230308771133,-0.01392577588558197,-0.002188384532928467,2,0.05720953933662341,-0.01365201690413397,-0.1274129086857462,0.9901043602527728,-0.01245537493377924,-0.1167657151818275,-0.9930813908576965,0.502812385559082,14.97681045532227,-38.61389923095703,-1,2,1047918.03367,1,2,1617673715.622839,1617673410.617,47,1.531854,0,0,29.99327,0,0,1617673549.220759,1047915.759981,0,-0.7821045,98.1646,0,0,0,0,0,1,1617673715.230588,1,0.11,1617673715.987362,-20.02575,-27.16391,0
1617673716.032747,24,0,0,0,0,0,0,0,0,0,1617673716.022694,0.5656490325927734,14.85321807861328,-38.52859497070312,344.4107055664062,351.4390563964844,16.70048713684082,1047918.43033,-0.0086212158203125,-0.115509033203125,-1.005401611328125,1047918.40916,0.06903286278247833,0.02789954096078873,0.02147599682211876,1047918.407872,12.09292602539062,49.49397277832031,-109.0008850097656,1047918.383011,-0.2552311939716304,-0.01254149205663778,0.1170326914764468,-0.004217582289129496,0.03434734418988228,0.03316280245780945,-0.002910230308771133,-0.01392577588558197,-0.002188384532928467,2,0.05720953933662341,-0.01365201690413397,-0.1274129086857462,0.9901043602527728,-0.01245537493377924,-0.1167657151818275,-0.9930813908576965,0.502812385559082,14.97681045532227,-38.61389923095703,-1,2,1047918.03367,1,2,1617673715.622839,1617673410.617,47,1.531854,0,0,29.99327,0,0,1617673549.220759,1047915.759981,0,-0.7821045,98.1646,0,0,0,0,0,1,1617673715.230588,1,0.11,1617673716.011599,-20.02575,-27.64821,0
1617673716.072251,25,0,0,0,0,0,0,0,0,0,1617673716.062837,0.6280946731567383,14.78946304321289,-38.62493133544922,344.4254760742188,351.4538269042969,16.70017051696777,1047918.463954,0.002655029296875,-0.1339874267578125,-1.013900756835938,1047918.442785,0.1498289108276367,0.1283630281686783,-0.01893960312008858,1047918.467858,12.16917419433594,49.18115234375,-108.9898223876953,1047918.442785,-0.2543523150857803,-0.01043496299584409,0.1216395322304833,0.1386320888996124,0.1230964213609695,-0.01707014068961143,0.002072140574455261,-0.001508690416812897,0.0006746649742126465,2,0.05963005451737467,-0.01287488411264351,-0.126911951909345,0.9900362747333488,-0.01035767141729593,-0.1213397905230522,-0.9925569891929626,0.5652847290039062,14.8116569519043,-38.62552642822266,-1,2,1047918.03367,1,2,1617673715.622839,1617673410.617,47,1.531854,0,0,29.99327,0,0,1617673549.220759,1047915.759981,0,-0.7821045,98.1646,0,0,0,0,0,1,1617673715.230588,1,0.11,1617673716.057396,-20.02575,-28.0197,0
1617673716.108619,26,0,0,0,0,0,0,0,0,0,1617673716.102806,0.8768405914306641,14.60254669189453,-38.74569702148438,344.4160461425781,351.4443969726562,16.69987678527832,1047918.497576,0.0028533935546875,-0.1376495361328125,-1.004913330078125,1047918.476407,0.1619713306427002,0.08107328414916992,0.00353321572765708,1047918.467858,12.16917419433594,49.18115234375,-108.9898223876953,1047918.442785,-0.2543523150857803,-0.01043496299584409,0.1216395322304833,0.1386320888996124,0.1230964213609695,-0.01707014068961143,0.002072140574455261,-0.001508690416812897,0.0006746649742126465,2,0.05963005451737467,-0.01287488411264351,-0.126911951909345,0.9900362747333488,-0.01035767141729593,-0.1213397905230522,-0.9925569891929626,0.5652847290039062,14.8116569519043,-38.62552642822266,-1,2,1047918.03367,1,2,1617673715.622839,1617673410.617,47,1.531854,0,0,29.99327,0,0,1617673549.220759,1047915.759981,0,-0.7821045,98.1646,0,0,0,0,0,1,1617673715.230588,1,0.11,1617673716.078231,-20.58303,-28.53419,0
1617673716.141866,27,0,0,0,0,0,0,0,0,0,1617673716.122387,0.9595355987548828,14.51615142822266,-38.69008636474609,344.4046630859375,351.4330139160156,16.69975471496582,1047918.531201,-0.00115966796875,-0.1497650146484375,-0.9759063720703125,1047918.510029,0.1040989682078362,0.01282684877514839,0.01021002698689699,1047918.527844,12.47247314453125,48.904296875,-108.8402252197266,1047918.502559,-0.2542552276061925,-0.005456091822602626,0.1299309842715294,0.111148476600647,0.007149999029934406,0.0040611089207232,0.006905429530888796,-0.009991124272346497,-0.006979048252105713,2,0.06405052432617285,-0.01093117555400685,-0.1266932090483877,0.9898115500169826,-0.005410074722021818,-0.1295657157897949,-0.9915561079978943,0.952235221862793,14.51330947875977,-38.80532836914062,-1,2,1047918.03367,1,2,1617673715.622839,1617673410.617,47,1.531854,0,0,29.99327,0,0,1617673549.220759,1047915.759981,0,-0.7821045,98.1646,0,0,0,0,0,1,1617673715.230588,1,0.11,1617673716.11775,-21.69759,-26.73595,0
1617673716.176393,28,0,0,0,0,0,0,0,0,0,1617673716.162185,1.022922515869141,14.28164672851562,-38.75816345214844,344.2836303710938,351.3119812011719,16.69949531555176,1047918.56482225,-0.008941650390625,-0.14654541015625,-0.972503662109375,1047918.543653,0.06619686633348465,0.04070482030510902,0.06306871771812439,1047918.527844,12.47247314453125,48.904296875,-108.8402252197266,1047918.502559,-0.2542552276061925,-0.005456091822602626,0.1299309842715294,0.111148476600647,0.007149999029934406,0.0040611089207232,0.006905429530888796,-0.009991124272346497,-0.006979048252105713,2,0.06405052432617285,-0.01093117555400685,-0.1266932090483877,0.9898115500169826,-0.005410074722021818,-0.1295657157897949,-0.9915561079978943,0.952235221862793,14.51330947875977,-38.80532836914062,-1,2,1047918.03367,1,2,1617673715.622839,1617673410.617,47,1.531854,0,0,29.99327,0,0,1617673549.220759,1047915.759981,0,-0.7821045,98.1646,0,0,0,0,0,1,1617673715.230588,1,0.11,1617673716.144334,-22.25486,-27.10969,0
1617673716.201939,29,0,0,0,0,0,0,0,0,0,1617673716.182108,1.086689949035645,14.20195007324219,-38.85433959960938,344.1750793457031,351.2034301757812,16.69935035705566,1047918.59844425,-0.0147552490234375,-0.130859375,-0.9740142822265625,1047918.57727425,0.06362265348434448,0.07151466608047485,0.09750711172819138,1047918.58782825,12.53857421875,48.74430847167969,-109.1318969726562,1047918.56233225,-0.251541953238743,-0.004160834617390123,0.1336042497605365,0.05584090203046799,0.05324630066752434,0.0904337614774704,-0.003948166966438293,-0.01428428292274475,0.01734000444412231,2,0.06596466150187894,-0.01043276551729036,-0.125297375251155,0.9898688960269034,-0.00412374222651124,-0.1332071274518967,-0.9910796284675598,1.018797874450684,14.24496459960938,-38.82295989990234,-1,2,1047918.03367,1,2,1617673715.622839,1617673410.617,47,1.531854,0,0,29.99327,0,0,1617673549.220759,1047915.759981,0,-0.7821045,98.1646,0,0,0,0,0,1,1617673715.230588,1,0.11,1617673716.177382,-22.81214,-27.68386,0
1617673716.241406,30,0,0,0,0,0,0,0,0,0,1617673716.223125,1.167073249816895,14.22007369995117,-39.06653594970703,343.9369812011719,350.96533203125,16.69906806945801,1047918.63206825,-0.0207061767578125,-0.118133544921875,-0.9896087646484375,1047918.61089825,0.02149410732090473,0.03971225768327713,0.1018408760428429,1047918.58782825,12.53857421875,48.74430847167969,-109.1318969726562,1047918.62210625,-0.2454103163618691,-0.001412326800617945,0.1362453344797518,-0.01433670241385698,0.005524233914911747,0.0991281196475029,-0.01329497992992401,0.01624111831188202,-0.004125833511352539,2,0.06747193188911017,-0.009030819949234551,-0.1221612484078054,0.9901730519459935,-0.001399238244630396,-0.1358242034912109,-0.990731954574585,1.189845085144043,14.15669250488281,-39.10711669921875,-1,2,1047918.03367,1,2,1617673715.622839,1617673410.617,47,1.531854,0,0,29.99327,0,0,1617673549.220759,1047915.759981,0,-0.7821045,98.1646,1617673716.238351,587422867,1685438189,0,0,1,1617673715.230588,1,0.11,1617673716.211389,-23.9267,-27.9399,0
1617673716.271752,31,0,0,0,0,0,0,0,0,0,1617673716.261746,1.374090194702148,14.12226104736328,-38.90138244628906,343.7406616210938,350.7690124511719,16.69879722595215,1047918.66569025,-0.0248565673828125,-0.098724365234375,-0.9963226318359375,1047918.64452025,-0.06550604104995728,0.002024535089731216,0.07588411122560501,1047918.64781725,12.80929565429688,48.71427917480469,-109.2989959716797,1047918.62210625,-0.2454103163618691,-0.001412326800617945,0.1362453344797518,-0.01433670241385698,0.005524233914911747,0.0991281196475029,-0.01329497992992401,0.01624111831188202,-0.004125833511352539,2,0.06747193188911017,-0.009030819949234551,-0.1221612484078054,0.9901730519459935,-0.001399238244630396,-0.1358242034912109,-0.990731954574585,1.189845085144043,14.15669250488281,-39.10711669921875,-1,2,1047918.03367,1,2,1617673715.622839,1617673410.617,47,1.531854,0,0,29.99327,0,0,1617673549.220759,1047915.759981,0,-0.7821045,98.1646,1617673716.238351,587422867,1685438189,0,0,1,1617673715.230588,1,0.11,1617673716.244551,-24.22206,-28.00719,0
1617673716.301244,32,0,0,0,0,0,0,0,0,0,1617673716.281835,1.388998985290527,14.24873352050781,-38.98732757568359,343.6976013183594,350.7259521484375,16.69866943359375,1047918.69931225,-0.0216827392578125,-0.094635009765625,-0.994049072265625,1047918.67814225,-0.08454231172800064,-0.01692092604935169,0.01092508528381586,1047918.64781725,12.80929565429688,48.71427917480469,-109.2989959716797,1047918.68188025,-0.2416714705758151,-0.002866135177856593,0.1321745551511218,-0.0914423018693924,-0.02505094558000565,0.004709342494606972,-0.02076421678066254,0.03665152192115784,-0.01498252153396606,2,0.06538520072380707,-0.009379989887884996,-0.1203725681536882,0.9905288357781521,-0.002841131761670113,-0.1317900419235229,-0.9912735819816589,1.46092414855957,14.23464584350586,-39.04113006591797,-1,2,1047918.03367,1,2,1617673715.622839,1617673410.617,47,1.531854,0,0,29.99327,0,0,1617673549.220759,1047915.759981,0,-0.7821045,98.1646,1617673716.238351,587422867,1685438189,0,0,1,1617673715.230588,1,0.11,1617673716.28768,-24.22206,-28.52333,0
1617673716.346865,33,0,0,0,0,0,0,0,0,0,1617673716.341566,1.468241691589355,14.45341873168945,-38.99928283691406,343.8199157714844,350.8482666015625,16.69827842712402,1047918.73293625,-0.0175933837890625,-0.11285400390625,-0.98150634765625,1047918.71176725,-0.05064560100436211,0.04009921476244926,-0.05026370286941528,1047918.70780325,12.91096496582031,48.99781799316406,-109.2077026367188,1047918.68188025,-0.2416714705758151,-0.002866135177856593,0.1321745551511218,-0.0914423018693924,-0.02505094558000565,0.004709342494606972,-0.02076421678066254,0.03665152192115784,-0.01498252153396606,2,0.06538520072380707,-0.009379989887884996,-0.1203725681536882,0.9905288357781521,-0.002841131761670113,-0.1317900419235229,-0.9912735819816589,1.46092414855957,14.23464584350586,-39.04113006591797,-1,2,1047918.03367,1,2,1617673715.622839,1617673410.617,47,1.531854,0,0,29.99327,0,0,1617673549.220759,1047915.759981,0,-0.7821045,98.1646,1617673716.238351,587422867,1685438189,0,0,1,1617673715.230588,1,0.11,1617673716.311602,-24.22206,-28.90807,0
1617673716.371205,34,0,0,0,0,0,0,0,0,0,1617673716.361487,1.445218086242676,14.42072296142578,-39.01223754882812,343.89599609375,350.9243469238281,16.69815063476562,1047918.76655825,-0.0076751708984375,-0.127288818359375,-0.982879638671875,1047918.74538925,-0.06371266394853592,0.0966610312461853,-0.07235169410705566,1047918.76779125,12.94683837890625,49.10400390625,-109.3048400878906,1047918.74165425,-0.2441948332497787,-0.001829095493675357,0.1271433841597311,-0.07433450222015381,0.08865141868591309,-0.0706639364361763,-0.009828135371208191,0.01214659214019775,0.005003273487091064,2,0.06294474228000536,-0.008643355675147554,-0.1216058647409559,0.99054294399548,-0.001814330345951021,-0.1268011033535004,-0.9919264912605286,1.438252449035645,14.50184631347656,-39.02031707763672,-1,2,1047918.03367,1,2,1617673715.622839,1617673410.617,47,1.531854,0,0,29.99327,0,0,1617673549.220759,1047915.759981,0,-0.7821045,98.1646,1617673716.238351,587422867,1685438189,0,0,1,1617673715.230588,1,0.11,1617673716.358391,-22.41022,-29.30165,0
1617673716.418227,35,0,0,0,0,0,0,0,0,0,1617673716.401368,1.614179611206055,14.68795776367188,-38.85248565673828,344.0401306152344,351.0684814453125,16.69790458679199,1047918.80018325,0.0015716552734375,-0.12640380859375,-1.013275146484375,1047918.77901125,-0.09595422446727753,0.146561473608017,-0.06752391904592514,1047918.76779125,12.94683837890625,49.10400390625,-109.3048400878906,1047918.74165425,-0.2441948332497787,-0.001829095493675357,0.1271433841597311,-0.07433450222015381,0.08865141868591309,-0.0706639364361763,-0.009828135371208191,0.01214659214019775,0.005003273487091064,2,0.06294474228000536,-0.008643355675147554,-0.1216058647409559,0.99054294399548,-0.001814330345951021,-0.1268011033535004,-0.9919264912605286,1.438252449035645,14.50184631347656,-39.02031707763672,-1,2,1047918.03367,1,2,1617673715.622839,1617673410.617,47,1.531854,0,0,29.99327,0,0,1617673549.220759,1047915.759981,0,-0.7821045,98.1646,1617673716.238351,587422867,1685438189,0,0,1,1617673715.230588,1,0.11,1617673716.418209,-21.52298,-27.21784,0
1617673716.440822,36,0,0,0,0,0,0,0,0,0,1617673716.421172,1.629976272583008,14.7585563659668,-38.9385986328125,344.1197204589844,351.1480712890625,16.69778060913086,1047918.83380525,0.0036773681640625,-0.1396331787109375,-1.019577026367188,1047918.81263525,-0.09117518365383148,0.03662006184458733,-0.07116605341434479,1047918.82778125,13.13896179199219,49.32112121582031,-109.1308441162109,1047918.80142825,-0.2480552625624937,0.003953590534585226,0.1199047968014314,-0.11457609385252,0.06742899119853973,-0.07564524561166763,-0.002353549003601074,-0.00678609311580658,-0.02046287059783936,2,0.05970023422433329,-0.005454164350891501,-0.1233698670178128,0.9905482839740301,0.003925193566828966,-0.119617685675621,-0.9928122758865356,1.623212814331055,14.79784393310547,-38.92030334472656,-1,2,1047918.03367,1,2,1617673715.622839,1617673410.617,47,1.531854,0,0,29.99327,0,0,1617673549.220759,1047915.759981,0,-0.7821045,98.1646,1617673716.238351,587422867,1685438189,0,0,1,1617673715.230588,1,0.11,1617673716.418209,-21.52298,-27.21784,0
1617673716.477334,37,0,0,0,0,0,0,0,0,0,1617673716.461099,1.629092216491699,14.80754470825195,-38.82064056396484,344.2246704101562,351.2530212402344,16.69753837585449,1047918.86742725,0.01007080078125,-0.1411285400390625,-1.034515380859375,1047918.84625725,-0.02304513193666935,0.01203775405883789,-0.03940386325120926,1047918.82778125,13.13896179199219,49.32112121582031,-109.1308441162109,1047918.80142825,-0.2480552625624937,0.003953590534585226,0.1199047968014314,-0.11457609385252,0.06742899119853973,-0.07564524561166763,-0.002353549003601074,-0.00678609311580658,-0.02046287059783936,2,0.05970023422433329,-0.005454164350891501,-0.1233698670178128,0.9905482839740301,0.003925193566828966,-0.119617685675621,-0.9928122758865356,1.623212814331055,14.79784393310547,-38.92030334472656,-1,2,1047918.03367,1,2,1617673715.622839,1617673410.617,47,1.531854,0,0,29.99327,0,0,1617673549.220759,1047915.759981,0,-0.7821045,98.1646,1617673716.238351,587422867,1685438189,0,0,1,1617673715.230588,1,0.11,1617673716.444426,-21.52298,-27.49117,0
1617673716.510767,38,0,0,0,0,0,0,0,0,0,1617673716.500854,1.630558967590332,14.81022262573242,-38.65849304199219,344.2011108398438,351.2294616699219,16.6973819732666,1047918.90105125,0.010589599609375,-0.1300506591796875,-1.024459838867188,1047918.87988125,0.07416290789842606,-0.1106439530849457,0.01671719551086426,1047918.88776925,13.06813049316406,49.41525268554688,-109.0962066650391,1047918.86120225,-0.2510180837225049,0.0043847741279863,0.1164901698918615,0.003201301209628582,-0.007388831116259098,-0.01403048634529114,0.001092333346605301,-0.025435671210289,-0.02850013971328735,2,0.05802810317149034,-0.005115516280777343,-0.1248405911631407,0.9904652487745458,0.004355043172836304,-0.116226889193058,-0.9932131171226501,1.633712768554688,14.84614562988281,-38.87857818603516,-1,2,1047918.03367,1,2,1617673715.622839,1617673410.617,47,1.531854,0,0,29.99327,0,0,1617673549.220759,1047915.759981,0,-0.7821045,98.1646,1617673716.238351,587422867,1685438189,0,0,1,1617673715.230588,1,0.11,1617673716.478109,-21.52298,-27.65324,0
1617673716.540262,39,0,0,0,0,0,0,0,0,0,1617673716.521016,1.533010482788086,14.81986618041992,-38.74687194824219,344.1661071777344,351.1944580078125,16.69737434387207,1047918.93467325,-0.002349853515625,-0.1325531005859375,-0.98590087890625,1047918.91350325,0.1078977063298225,-0.1855075508356094,0.02412291243672371,1047918.88776925,13.06813049316406,49.41525268554688,-109.0962066650391,1047918.92097625,-0.2497903339465898,-0.003652243637464081,0.1215108674793844,0.08951061218976974,-0.1904100924730301,0.02503124065697193,0.006493948400020599,-0.007739916443824768,-0.009729862213134766,2,0.06001795020679399,-0.009372232834280604,-0.1244506820014339,0.9903646360702336,-0.00362530630081892,-0.1212120726704597,-0.9926199913024902,1.469054222106934,14.86415100097656,-38.75836944580078,-1,2,1047918.03367,1,2,1617673715.622839,1617673410.617,47,1.531854,0,0,29.99327,0,0,1617673549.220759,1047915.759981,0,-0.7821045,98.1646,1617673716.238351,587422867,1685438189,0,0,1,1617673715.230588,1,0.11,1617673716.512508,-21.52298,-27.22381,0
1617673716.570535,40,0,0,0,0,0,0,0,0,0,1617673716.560603,1.234562873840332,14.78487014770508,-38.69594573974609,344.1028442382812,351.1311950683594,16.6973819732666,1047918.96829525,-0.0118865966796875,-0.126190185546875,-0.9709930419921875,1047918.94712525,0.02916694059967995,-0.147956445813179,0.02886999770998955,1047918.94775825,12.65872192382812,49.52955627441406,-109.1177825927734,1047918.92097625,-0.2497903339465898,-0.003652243637464081,0.1215108674793844,0.08951061218976974,-0.1904100924730301,0.02503124065697193,0.006493948400020599,-0.007739916443824768,-0.009729862213134766,2,0.06001795020679399,-0.009372232834280604,-0.1244506820014339,0.9903646360702336,-0.00362530630081892,-0.1212120726704597,-0.9926199913024902,1.469054222106934,14.86415100097656,-38.75836944580078,-1,2,1047918.03367,1,2,1617673715.622839,1617673410.617,47,1.531854,0,0,29.99327,0,0,1617673549.220759,1047915.759981,0,-0.7821045,98.1646,1617673716.238351,587422867,1685438189,0,0,1,1617673715.230588,1,0.11,1617673716.544869,-21.52298,-27.56276,0
1617673716.61055,41,0,0,0,0,0,0,0,0,0,1617673716.600552,1.041254997253418,14.75310897827148,-38.87682342529297,344.0645141601562,351.0928649902344,16.69728469848633,1047919.00191925,-0.0153961181640625,-0.1125640869140625,-0.977294921875,1047918.98075025,-0.06219493225216866,-0.04890495911240578,0.01459971535950899,1047918.94775825,12.65872192382812,49.52955627441406,-109.1177825927734,1047918.98075025,-0.2482187426572308,-0.01112267126488034,0.1224358432273683,-0.07339002192020416,-0.05417114123702049,0.01646860688924789,-0.002922620624303818,0.002318203449249268,0.02388578653335571,2,0.06002102990681479,-0.01308157310510212,-0.1238948311639589,0.9903920138104712,-0.01103918068110943,-0.1221301779150963,-0.9924526810646057,1.053422927856445,14.75395965576172,-38.88525390625,-1,2,1047918.03367,1,2,1617673715.622839,1617673410.617,47,1.531854,0,0,29.99327,0,0,1617673549.220759,1047915.759981,0,-0.7821045,98.1646,1617673716.238351,587422867,1685438189,0,0,1,1617673715.230588,1,0.11,1617673716.59992,-21.43132,-28.69053,0
1617673716.646857,42,0,0,0,0,0,0,0,0,0,1617673716.640447,1.044499397277832,14.82074356079102,-38.73231506347656,344.1130676269531,351.1414184570312,16.69707298278809,1047919.03554125,-0.0059356689453125,-0.113861083984375,-0.9889373779296875,1047919.01437225,-0.05104108154773712,0.01682079210877419,-0.02469043247401714,1047919.00774725,12.44117736816406,49.32293701171875,-109.2913513183594,1047918.98075025,-0.2482187426572308,-0.01112267126488034,0.1224358432273683,-0.07339002192020416,-0.05417114123702049,0.01646860688924789,-0.002922620624303818,0.002318203449249268,0.02388578653335571,2,0.06002102990681479,-0.01308157310510212,-0.1238948311639589,0.9903920138104712,-0.01103918068110943,-0.1221301779150963,-0.9924526810646057,1.053422927856445,14.75395965576172,-38.88525390625,-1,2,1047918.03367,1,2,1617673715.622839,1617673410.617,47,1.531854,0,0,29.99327,0,0,1617673549.220759,1047915.759981,0,-0.7821045,98.1646,1617673716.238351,587422867,1685438189,0,0,1,1617673715.230588,1,0.11,1617673716.61192,-21.43132,-28.69053,0
1617673716.680086,43,0,0,0,0,0,0,0,0,0,1617673716.660374,1.024131774902344,14.83414077758789,-38.86918640136719,344.1192626953125,351.1476135253906,16.69696807861328,1047919.06916625,0.0023956298828125,-0.1207427978515625,-1.0037841796875,1047919.04799425,0.02599325031042099,0.008215053007006645,-0.001865544356405735,1047919.06773125,12.48835754394531,49.35789489746094,-109.3108825683594,1047919.04052425,-0.2490752243194234,-0.01050380164354384,0.1197471373014928,-0.00448024645447731,0.01359813194721937,-0.01460648607462645,0.006659463047981262,0.003631725907325745,0.001420557498931885,2,0.05872235804555422,-0.0126345723018113,-0.1243034842151936,0.9904244341316777,-0.01042839046567678,-0.1194611564278603,-0.9927840828895569,1.069738388061523,14.83274459838867,-38.71343994140625,-1,2,1047918.03367,1,2,1617673715.622839,1617673410.617,47,1.531854,0,0,29.99327,0,0,1617673549.220759,1047915.759981,0,-0.7821045,98.1646,1617673716.238351,587422867,1685438189,0,0,1,1617673715.230588,1,0.11,1617673716.67809,-21.43132,-27.46231,0
1617673716.718347,44,0,0,0,0,0,0,0,0,0,1617673716.7004,1.092207908630371,14.72595596313477,-38.76479339599609,344.0428161621094,351.0711669921875,16.69676399230957,1047919.10278725,0.0008087158203125,-0.121826171875,-1.003768920898438,1047919.08161825,0.0366687998175621,-0.03982224687933922,0.04026326537132263,1047919.06773125,12.48835754394531,49.35789489746094,-109.3108825683594,1047919.04052425,-0.2490752243194234,-0.01050380164354384,0.1197471373014928,-0.00448024645447731,0.01359813194721937,-0.01460648607462645,0.006659463047981262,0.003631725907325745,0.001420557498931885,2,0.05872235804555422,-0.0126345723018113,-0.1243034842151936,0.9904244341316777,-0.01042839046567678,-0.1194611564278603,-0.9927840828895569,1.069738388061523,14.83274459838867,-38.71343994140625,-1,2,1047918.03367,1,2,1617673715.622839,1617673410.617,47,1.531854,0,0,29.99327,0,0,1617673549.220759,1047915.759981,0,-0.7821045,98.1646,1617673716.238351,587422867,1685438189,0,0,1,1617673715.230588,1,0.11,1617673716.71833,-21.43132,-28.30667,0
1617673716.740112,45,0,0,0,0,0,0,0,0,0,1617673716.720192,1.035092353820801,14.74857330322266,-38.86021423339844,343.989013671875,351.0173645019531,16.69666481018066,1047919.13640925,-0.0065460205078125,-0.1204376220703125,-0.9835968017578125,1047919.11524025,-0.0188613049685955,-0.08813358843326569,0.04979738220572472,1047919.12772425,12.42947387695312,49.29132080078125,-109.1571502685547,1047919.10029725,-0.2475388880334998,-0.01263619188192545,0.120879097370527,-0.006695288699120283,-0.08665364980697632,0.04584312438964844,0.01339813694357872,8.631497621536255e-05,-0.01279312372207642,2,0.05916094119692808,-0.0137150706279161,-0.1236045239560961,0.9904714534384895,-0.01254365220665932,-0.1205849349498749,-0.9926237463951111,1.100116729736328,14.69169235229492,-38.79976654052734,-1,2,1047918.03367,1,2,1617673715.622839,1617673410.617,47,1.531854,0,0,29.99327,0,0,1617673549.220759,1047915.759981,0,-0.7821045,98.1646,1617673716.238351,587422867,1685438189,0,0,1,1617673715.230588,1,0.11,1617673716.71833,-21.43132,-28.30667,0
1617673716.779487,46,0,0,0,0,0,0,0,0,0,1617673716.760024,0.9894866943359375,14.6894645690918,-38.74330139160156,343.8932800292969,350.921630859375,16.69647407531738,1047919.17003425,-0.0158538818359375,-0.12493896484375,-0.9722137451171875,1047919.14886425,-0.03400830179452896,-0.07686149328947067,0.03415317833423615,1047919.12772425,12.42947387695312,49.29132080078125,-109.1571502685547,1047919.16007125,-0.2449993986466498,-0.01730975441895057,0.1185283355201636,-0.04411656782031059,-0.04989206790924072,0.03617855161428452,0.004888854920864105,-0.002476505935192108,0.01946157217025757,2,0.0577277281733501,-0.01581202030019135,-0.1224832300130667,0.990664157034636,-0.0171874463558197,-0.1182509958744049,-0.9928349852561951,0.9497356414794922,14.68658065795898,-38.79007720947266,-1,2,1047918.03367,1,2,1617673715.622839,1617673410.617,47,1.531854,0,0,29.99327,0,0,1617673549.220759,1047916.710405,0,-0.7609863,98.16434,1617673716.238351,587422867,1685438189,0,0,1,1617673715.230588,1,0.11,1617673716.779213,-21.43132,-28.74618,0
1617673716.809993,47,0,0,0,0,0,0,0,0,0,1617673716.799822,0.9087820053100586,14.7473258972168,-38.84268951416016,343.794677734375,350.8230285644531,16.69629096984863,1047919.20365625,-0.01751708984375,-0.1249847412109375,-0.989013671875,1047919.18248625,-0.02161501348018646,0.009492837823927402,0.04822798445820808,1047919.18772125,12.35029602050781,49.37307739257812,-109.2476959228516,1047919.16007125,-0.2449993986466498,-0.01730975441895057,0.1185283355201636,-0.04411656782031059,-0.04989206790924072,0.03617855161428452,0.004888854920864105,-0.002476505935192108,0.01946157217025757,2,0.0577277281733501,-0.01581202030019135,-0.1224832300130667,0.990664157034636,-0.0171874463558197,-0.1182509958744049,-0.9928349852561951,0.9497356414794922,14.68658065795898,-38.79007720947266,-1,2,1047918.03367,1,2,1617673715.622839,1617673410.617,47,1.531854,0,0,29.99327,0,0,1617673549.220759,1047916.710405,0,-0.7609863,98.16434,1617673716.238351,587422867,1685438189,0,0,1,1617673715.230588,1,0.11,1617673716.779213,-21.43132,-28.74618,0
1617673716.83938,48,0,0,0,0,0,0,0,0,0,1617673716.819698,0.9192161560058594,14.91995620727539,-38.82091522216797,343.7142028808594,350.7425537109375,16.69620323181152,1047919.23727825,-0.0220184326171875,-0.1050262451171875,-0.9980926513671875,1047919.21610825,-0.02576262131333351,0.02947080694139004,0.07625801861286163,1047919.18772125,12.35029602050781,49.37307739257812,-109.2476959228516,1047919.21984525,-0.2416566526048148,-0.01638061648554487,0.1165333952487628,-0.04115980863571167,0.02248421497642994,0.07686451822519302,-0.0008515827357769012,0.003583699464797974,-0.008121013641357422,2,0.05682169503949633,-0.01513564754680754,-0.12079942607138,0.9909336969368553,-0.01626878976821899,-0.1162698194384575,-0.9930844306945801,0.8782014846801758,14.93793869018555,-38.88379669189453,-1,2,1047918.03367,1,2,1617673715.622839,1617673410.617,47,1.531854,0,0,29.99327,0,0,1617673549.220759,1047916.710405,0,-0.7609863,98.16434,1617673716.238351,587422867,1685438189,0,0,1,1617673715.230588,1,0.11,1617673716.811807,-21.43132,-29.59205,0
1617673716.887321,49,0,0,0,0,0,0,0,0,0,1617673716.879454,0.9763097763061523,14.9646110534668,-38.81898498535156,343.4560546875,350.4844055175781,16.69594764709473,1047919.27090225,-0.0283203125,-0.0843353271484375,-1.013702392578125,1047919.24973225,-0.08121283352375031,0.06072859466075897,0.08085330575704575,1047919.24771225,12.43801879882812,49.57331848144531,-109.2888031005859,1047919.21984525,-0.2416566526048148,-0.01638061648554487,0.1165333952487628,-0.04115980863571167,0.02248421497642994,0.07686451822519302,-0.0008515827357769012,0.003583699464797974,-0.008121013641357422,2,0.05682169503949633,-0.01513564754680754,-0.12079942607138,0.9909336969368553,-0.01626878976821899,-0.1162698194384575,-0.9930844306945801,0.8782014846801758,14.93793869018555,-38.88379669189453,-1,2,1047918.03367,1,2,1617673715.622839,1617673410.617,47,1.531854,0,0,29.99327,0,0,1617673549.220759,1047916.710405,0,-0.7609863,98.16434,1617673716.238351,587422867,1685438189,0,0,1,1617673715.230588,1,0.11,1617673716.887158,-21.43132,-30.47084,0
1617673716.909217,50,0,0,0,0,0,0,0,0,0,1617673716.899568,1.006814956665039,15.06560134887695,-38.86707305908203,343.4173583984375,350.4457092285156,16.69586563110352,1047919.30452425,-0.027862548828125,-0.079986572265625,-1.023452758789062,1047919.28335425,-0.1096681728959084,-0.01659895107150078,0.03388845920562744,1047919.24771225,12.43801879882812,49.57331848144531,-109.2888031005859,1047919.27961925,-0.2372748692524564,-0.0144654951358348,0.1117282012694551,-0.1249628141522408,-0.00548607250675559,0.04650166258215904,-0.01379293575882912,0.03225703537464142,-0.02881526947021484,2,0.05458640686142789,-0.01377906868405143,-0.1185726044269691,0.9913480144422169,-0.01437480002641678,-0.1114958897233009,-0.9936609268188477,0.9710369110107422,14.99076461791992,-38.88147735595703,-1,2,1047918.03367,1,2,1617673715.622839,1617673410.617,47,1.531854,0,0,29.99327,0,0,1617673549.220759,1047916.710405,0,-0.7609863,98.16434,1617673716.238351,587422867,1685438189,0,0,1,1617673715.230588,1,0.11,1617673716.887158,-21.43132,-30.47084,0
1617673716.956096,51,0,0,0,0,0,0,0,0,0,1617673716.939369,1.080639839172363,15.20098876953125,-38.41008758544922,343.4488220214844,350.4771728515625,16.69570541381836,1047919.33814825,-0.0308837890625,-0.1027374267578125,-0.9876708984375,1047919.31697625,-0.04740506783127785,-0.1041061654686928,-0.01765809021890163,1047919.30770625,12.50308227539062,49.77023315429688,-108.9786834716797,1047919.27961925,-0.2372748692524564,-0.0144654951358348,0.1117282012694551,-0.1249628141522408,-0.00548607250675559,0.04650166258215904,-0.01379293575882912,0.03225703537464142,-0.02881526947021484,2,0.05458640686142789,-0.01377906868405143,-0.1185726044269691,0.9913480144422169,-0.01437480002641678,-0.1114958897233009,-0.9936609268188477,0.9710369110107422,14.99076461791992,-38.88147735595703,-1,2,1047918.03367,1,2,1617673715.622839,1617673410.617,47,1.531854,0,0,29.99327,0,0,1617673549.220759,1047916.710405,0,-0.7609863,98.16434,1617673716.238351,587422867,1685438189,0,0,1,1617673715.230588,1,0.11,1617673716.956076,-21.43132,-31.29415,0
1617673716.978955,52,0,0,0,0,0,0,0,0,0,1617673716.959212,0.9199886322021484,15.34949493408203,-38.53230285644531,343.4836120605469,350.511962890625,16.69562721252441,1047919.37177025,-0.032684326171875,-0.131622314453125,-0.964324951171875,1047919.35060125,-0.00580702256411314,-0.07098495960235596,-0.02956188656389713,1047919.36769925,12.40586853027344,49.80252075195312,-108.9411468505859,1047919.33939325,-0.2375591438664633,-0.01989176135932324,0.1070373159922257,-0.03268390148878098,-0.09173431992530823,-0.03324850276112556,-0.01110717467963696,0.004095666110515594,0.006409406661987305,2,0.05193669063629003,-0.01620014583409882,-0.1188532305838446,0.9914201783173817,-0.01977661624550819,-0.1068330481648445,-0.9940802454948425,1.014375686645508,15.33679962158203,-38.464599609375,-1,2,1047918.03367,1,2,1617673715.622839,1617673410.617,47,1.531854,0,0,29.99327,0,0,1617673549.220759,1047916.710405,0,-0.7609863,98.16434,1617673716.238351,587422867,1685438189,0,0,1,1617673715.230588,1,0.11,1617673716.977991,-21.43132,-31.43171,0
1617673717.015767,53,0,0,0,0,0,0,0,0,0,1617673716.99922,0.8272428512573242,15.21996688842773,-38.53827667236328,343.4784851074219,350.5068359375,16.69547653198242,1047919.40539225,-0.0300140380859375,-0.1304473876953125,-1.004989624023438,1047919.38422325,-0.03384158760309219,0.07975421845912933,0.01689855568110943,1047919.36769925,12.40586853027344,49.80252075195312,-108.9411468505859,1047919.33939325,-0.2375591438664633,-0.01989176135932324,0.1070373159922257,-0.03268390148878098,-0.09173431992530823,-0.03324850276112556,-0.01110717467963696,0.004095666110515594,0.006409406661987305,2,0.05193669063629003,-0.01620014583409882,-0.1188532305838446,0.9914201783173817,-0.01977661624550819,-0.1068330481648445,-0.9940802454948425,1.014375686645508,15.33679962158203,-38.464599609375,-1,2,1047918.03367,1,2,1617673715.622839,1617673410.617,47,1.531854,0,0,29.99327,0,0,1617673549.220759,1047916.710405,0,-0.7609863,98.16434,1617673716.238351,587422867,1685438189,0,0,1,1617673715.230588,1,0.11,1617673717.015751,-21.43132,-32.05416,0
1617673717.048812,54,0,0,0,0,0,0,0,0,0,1617673717.039212,0.9143819808959961,15.41694641113281,-38.37254333496094,343.3958435058594,350.4241943359375,16.69533348083496,1047919.43901625,-0.02618408203125,-0.0991058349609375,-1.032058715820312,1047919.41784725,-0.05611440166831017,0.02548432163894176,0.03559288010001183,1047919.42768925,12.37406921386719,50.02729797363281,-108.7637329101562,1047919.39916725,-0.2377002777554496,-0.0202386120984609,0.1035653419826787,-0.06812451779842377,0.1001094505190849,0.04369349777698517,-0.01571410335600376,-0.03466591984033585,0.01100927591323853,2,0.05019355167338974,-0.01617112505220257,-0.1189256174079538,0.9915016904593604,-0.02012879773974419,-0.1033803075551987,-0.9944382309913635,0.8018550872802734,15.31220245361328,-38.58369445800781,-1,2,1047918.03367,1,2,1617673715.622839,1617673410.617,47,1.531854,0,0,29.99327,0,0,1617673549.220759,1047916.710405,0,-0.7609863,98.16434,1617673716.238351,587422867,1685438189,0,0,1,1617673715.230588,1,0.11,1617673717.044414,-21.43132,-27.37851,0
1617673717.078468,55,0,0,0,0,0,0,0,0,0,1617673717.058983,0.9724235534667969,15.23072814941406,-38.34455871582031,343.4000549316406,350.4284057617188,16.69526290893555,1047919.47263825,-0.0260009765625,-0.0988311767578125,-1.014328002929688,1047919.45146925,-0.05256387591362,-0.02215377241373062,-0.0142537709325552,1047919.42768925,12.37406921386719,50.02729797363281,-108.7637329101562,1047919.45894125,-0.2366130314977987,-0.02073559822844357,0.1005389057817277,-0.06437277048826218,-0.01576158218085766,-0.01804102957248688,-0.006638053804636002,0.002225115895271301,-0.02600038051605225,2,0.04867221317186916,-0.01621266127904512,-0.118392609007637,0.9916407206014195,-0.0206294097006321,-0.1003696173429489,-0.9947363138198853,0.9816007614135742,15.29268264770508,-38.31584167480469,-1,2,1047918.03367,1,2,1617673715.622839,1617673410.617,47,1.531854,0,0,29.99327,0,0,1617673549.220759,1047916.710405,0,-0.7609863,98.16434,1617673716.238351,587422867,1685438189,0,0,1,1617673715.230588,1,0.11,1617673717.078177,-21.43132,-28.05215,0
1617673717.108691,56,0,0,0,0,0,0,0,0,0,1617673717.098714,0.8907556533813477,15.43231582641602,-38.38864898681641,343.4605407714844,350.4888916015625,16.69512557983398,1047919.50626025,-0.016815185546875,-0.1001434326171875,-1.02783203125,1047919.48509125,-0.02808170206844807,0.02648407220840454,-0.03399205580353737,1047919.48768125,12.33244323730469,50.04121398925781,-108.7933807373047,1047919.45894125,-0.2366130314977987,-0.02073559822844357,0.1005389057817277,-0.06437277048826218,-0.01576158218085766,-0.01804102957248688,-0.006638053804636002,0.002225115895271301,-0.02600038051605225,2,0.04867221317186916,-0.01621266127904512,-0.118392609007637,0.9916407206014195,-0.0206294097006321,-0.1003696173429489,-0.9947363138198853,0.9816007614135742,15.29268264770508,-38.31584167480469,-1,2,1047918.03367,1,2,1617673715.622839,1617673410.617,47,1.531854,0,0,29.99327,0,0,1617673549.220759,1047916.710405,0,-0.7609863,98.16434,1617673716.238351,587422867,1685438189,0,0,1,1617673715.230588,1,0.11,1617673717.078177,-21.43132,-28.05215,0
1617673717.148314,57,0,0,0,0,0,0,0,0,0,1617673717.138718,0.9084453582763672,15.54043197631836,-38.48228454589844,343.5238342285156,350.5521850585938,16.69507026672363,1047919.53988525,-0.0203094482421875,-0.0980682373046875,-1.020187377929688,1047919.51871525,0.05563343316316605,0.01001508347690105,-0.02994378469884396,1047919.48768125,12.33244323730469,50.04121398925781,-108.7933807373047,1047919.51871525,-0.238323700066737,-0.0202381346968039,0.1004683343940969,0.04443372040987015,0.004747773986309767,-0.02807336859405041,0.004524953663349152,-0.0001949518918991089,-0.03095752000808716,2,0.04865299391973968,-0.0160034870833938,-0.1192284997907355,0.9915449088343156,-0.02013470605015755,-0.1002994030714035,-0.9947535395622253,0.8931598663330078,15.57664489746094,-38.42184448242188,-1,2,1047918.03367,1,2,1617673715.622839,1617673410.617,47,1.531854,0,0,29.99327,0,0,1617673549.220759,1047916.710405,0,-0.7609863,98.16434,1617673716.238351,587422867,1685438189,0,0,1,1617673715.230588,1,0.11,1617673717.14495,-21.43132,-29.09362,0
1617673717.186976,58,0,0,0,0,0,0,0,0,0,1617673717.178346,0.8579607009887695,15.49615859985352,-38.38426208496094,343.611328125,350.6396789550781,16.69514656066895,1047919.573507292,-0.0252685546875,-0.097198486328125,-0.994293212890625,1047919.55233725,0.05359744653105736,-0.03851916268467903,-0.04015274718403816,1047919.54767225,12.21995544433594,50.12835693359375,-108.7815093994141,1047919.51871525,-0.238323700066737,-0.0202381346968039,0.1004683343940969,0.04443372040987015,0.004747773986309767,-0.02807336859405041,0.004524953663349152,-0.0001949518918991089,-0.03095752000808716,2,0.04865299391973968,-0.0160034870833938,-0.1192284997907355,0.9915449088343156,-0.02013470605015755,-0.1002994030714035,-0.9947535395622253,0.8931598663330078,15.57664489746094,-38.42184448242188,-1,2,1047918.03367,1,2,1617673715.622839,1617673410.617,47,1.531854,0,0,29.99327,0,0,1617673549.220759,1047916.710405,0,-0.7609863,98.16434,1617673716.238351,587422867,1685438189,0,0,1,1617673715.230588,1,0.11,1617673717.186829,-21.43132,-29.49174,0
1617673717.21793,59,0,0,0,0,0,0,0,0,0,1617673717.198233,0.855168342590332,15.47053909301758,-38.61482238769531,343.6812438964844,350.7095947265625,16.69516563415527,1047919.607131292,-0.0225372314453125,-0.098876953125,-0.98968505859375,1047919.585959292,-0.01309636048972607,-0.03746987879276276,-0.06182395294308662,1047919.607664292,12.14877319335938,49.94557189941406,-108.9146728515625,1047919.578489292,-0.2405129907537371,-0.0220476244215472,0.1022594685270755,-0.01685562171041965,-0.03694339469075203,-0.05767754465341568,-0.003627805039286613,0.004272542893886566,-0.0006439089775085449,2,0.04941453478556469,-0.01706050109862748,-0.1203621118216167,0.9913526965126789,-0.02193067222833633,-0.1020813435316086,-0.9945343136787415,0.857274055480957,15.47609710693359,-38.4556884765625,-1,2,1047918.03367,1,2,1617673715.622839,1617673410.617,47,1.531854,0,0,29.99327,0,0,1617673549.220759,1047916.710405,0,-0.7609863,98.16434,1617673716.238351,587422867,1685438189,0,0,1,1617673715.230588,1,0.11,1617673717.211457,-21.43132,-30.01356,0
1617673717.258435,60,0,0,0,0,0,0,0,0,0,1617673717.257979,0.6043052673339844,15.41280746459961,-38.51428985595703,343.8846740722656,350.9130249023438,16.6950569152832,1047919.640753292,-0.02294921875,-0.1133270263671875,-0.9888916015625,1047919.619583292,0.03044259361922741,0.01667751371860504,-0.0741376131772995,1047919.607664292,12.14877319335938,49.94557189941406,-108.9146728515625,1047919.578489292,-0.2405129907537371,-0.0220476244215472,0.1022594685270755,-0.01685562171041965,-0.03694339469075203,-0.05767754465341568,-0.003627805039286613,0.004272542893886566,-0.0006439089775085449,2,0.04941453478556469,-0.01706050109862748,-0.1203621118216167,0.9913526965126789,-0.02193067222833633,-0.1020813435316086,-0.9945343136787415,0.857274055480957,15.47609710693359,-38.4556884765625,-1,2,1047918.03367,1,2,1617673715.622839,1617673410.617,47,1.531854,0,0,29.99327,0,0,1617673549.220759,1047916.710405,0,-0.7609863,98.16434,1617673716.238351,587422867,1685438189,0,0,1,1617673715.230588,1,0.11,1617673717.258402,-21.43132,-28.16218,0
1617673717.277803,61,0,0,0,0,0,0,0,0,0,1617673717.257979,0.6043052673339844,15.41280746459961,-38.51428985595703,343.8846740722656,350.9130249023438,16.6950569152832,1047919.674375292,-0.017730712890625,-0.1115264892578125,-0.9959259033203125,1047919.653205292,0.08285466581583023,0.0299813337624073,-0.03046416491270065,1047919.667659292,12.08918762207031,49.85078430175781,-108.7789916992188,1047919.638263292,-0.2444519121099499,-0.02191793369014743,0.1021048661295016,0.05088997632265091,0.05643878877162933,-0.05036170408129692,-0.002489965409040451,-0.009614169597625732,0.01126128435134888,2,0.049312143955124,-0.01708414897192742,-0.1223107426977857,0.991118888516581,-0.0218020360916853,-0.1019275411963463,-0.9945529103279114,0.6241464614868164,15.3643798828125,-38.48325347900391,-1,2,1047918.03367,1,2,1617673715.622839,1617673410.617,47,1.531854,0,0,29.99327,0,0,1617673549.220759,1047916.710405,0,-0.7609863,98.16434,1617673716.238351,587422867,1685438189,0,0,1,1617673715.230588,1,0.11,1617673717.258402,-21.43132,-28.16218,0
1617673717.317453,62,0,0,0,0,0,0,0,0,0,1617673717.297915,0.6878376007080078,15.23431777954102,-38.38088226318359,343.9135437011719,350.94189453125,16.69493675231934,1047919.707999292,-0.02496337890625,-0.1078643798828125,-1.000762939453125,1047919.686829292,0.03238590434193611,0.03278244659304619,-0.006471747532486916,1047919.667659292,12.08918762207031,49.85078430175781,-108.7789916992188,1047919.698037292,-0.2454917742271406,-0.02066081137905628,0.1047328039554119,-0.01487612444907427,0.03229841217398643,0.004306907299906015,-0.005531135946512222,-0.008343048393726349,0.01196271181106567,2,0.05068280521548123,-0.01664680354022996,-0.1228001653245263,0.9909966479835306,-0.02054614014923573,-0.1045414432883263,-0.9943082928657532,0.6631050109863281,15.27667617797852,-38.44672393798828,-1,2,1047918.03367,1,2,1617673715.622839,1617673410.617,47,1.531854,0,0,29.99327,0,0,1617673549.220759,1047916.710405,0,-0.7609863,98.16434,1617673716.238351,587422867,1685438189,0,0,1,1617673715.230588,1,0.11,1617673717.315967,-21.43132,-29.54428,0
1617673717.347456,63,0,0,0,0,0,0,0,0,0,1617673717.33822,0.6241331100463867,15.43516159057617,-38.47902679443359,343.9213256835938,350.9496765136719,16.69482040405273,1047919.741621292,-0.0277557373046875,-0.0938873291015625,-0.990570068359375,1047919.720451292,-0.04035008698701859,-0.04058843851089478,-0.009414806962013245,1047919.727646292,12.06236267089844,50.05601501464844,-108.8882904052734,1047919.698037292,-0.2454917742271406,-0.02066081137905628,0.1047328039554119,-0.01487612444907427,0.03229841217398643,0.004306907299906015,-0.005531135946512222,-0.008343048393726349,0.01196271181106567,2,0.05068280521548123,-0.01664680354022996,-0.1228001653245263,0.9909966479835306,-0.02054614014923573,-0.1045414432883263,-0.9943082928657532,0.6631050109863281,15.27667617797852,-38.44672393798828,-1,2,1047918.03367,1,2,1617673715.622839,1617673410.617,47,1.531854,0,0,29.99327,0,0,1617673549.220759,1047916.710405,0,-0.7609863,98.16434,1617673716.238351,587422867,1685438189,0,0,1,1617673715.230588,1,0.11,1617673717.344433,-21.43132,-30.14881,0
1617673717.379214,64,0,0,0,0,0,0,0,0,0,1617673717.377538,0.6288881301879883,15.5042839050293,-38.45126342773438,343.9769287109375,351.0052795410156,16.6947078704834,1047919.775243292,-0.027679443359375,-0.0915374755859375,-0.9894561767578125,1047919.754073292,-0.02117878757417202,0.02249225974082947,-0.02433996088802814,1047919.727646292,12.06236267089844,50.05601501464844,-108.8882904052734,1047919.757811292,-0.2461952684669275,-0.02155246302461501,0.102787642843324,-0.03302210569381714,0.03480977192521095,-0.02423818409442902,-0.008332859724760056,0.009833335876464844,0.01708924770355225,2,0.0496581093959116,-0.01698771011925938,-0.1231671339285978,0.9909971146426937,-0.02143704891204834,-0.1026067435741425,-0.9944909811019897,0.6453933715820312,15.44350433349609,-38.39658355712891,-1,2,1047918.03367,1,2,1617673715.622839,1617673410.617,47,1.531854,0,0,29.99327,0,0,1617673549.220759,1047916.710405,0,-0.7609863,98.16434,1617673716.238351,587422867,1685438189,0,0,1,1617673715.230588,1,0.11,1617673717.379155,-21.43132,-30.59913,0
1617673717.418889,65,0,0,0,0,0,0,0,0,0,1617673717.417565,0.7570829391479492,15.20668792724609,-37.71579742431641,344.0886535644531,351.1170043945312,16.69459915161133,1047919.808867292,-0.025238037109375,-0.0951690673828125,-0.9986572265625,1047919.787698292,0.01217597257345915,0.02107918635010719,-0.047622911632061,1047919.787639292,12.1373291015625,50.00494384765625,-108.6637268066406,1047919.757811292,-0.2461952684669275,-0.02155246302461501,0.102787642843324,-0.03302210569381714,0.03480977192521095,-0.02423818409442902,-0.008332859724760056,0.009833335876464844,0.01708924770355225,2,0.0496581093959116,-0.01698771011925938,-0.1231671339285978,0.9909971146426937,-0.02143704891204834,-0.1026067435741425,-0.9944909811019897,0.6453933715820312,15.44350433349609,-38.39658355712891,-1,2,1047918.03367,1,2,1617673715.622839,1617673410.617,47,1.531854,0,0,29.99327,0,0,1617673549.220759,1047916.710405,0,-0.7609863,98.16434,1617673716.238351,587422867,1685438189,0,0,1,1617673715.230588,1,0.11,1617673717.411628,-21.43132,-31.42844,0
1617673717.447099,66,0,0,0,0,0,0,0,0,0,1617673717.437849,0.7258167266845703,15.42800521850586,-38.17320251464844,344.1586608886719,351.18701171875,16.69454765319824,1047919.842489292,-0.0283355712890625,-0.111480712890625,-0.9826812744140625,1047919.821320292,0.006524744443595409,0.0306127704679966,-0.06606397032737732,1047919.787639292,12.1373291015625,50.00494384765625,-108.6637268066406,1047919.817585292,-0.2488745577100799,-0.02012346928341051,0.1025900149797494,0.005015598610043526,0.01443561725318432,-0.06450315564870834,-0.006884939968585968,0.003441676497459412,0.005832374095916748,2,0.04962632070317016,-0.01633407007007457,-0.1244587473133112,0.9908483786047345,-0.02001631446182728,-0.102410152554512,-0.9945408701896667,0.7383098602294922,15.24978256225586,-37.87990570068359,-1,2,1047918.03367,1,2,1617673715.622839,1617673410.617,47,1.531854,0,0,29.99327,0,0,1617673549.220759,1047916.710405,0,-0.7609863,98.16434,1617673716.238351,587422867,1685438189,0,0,1,1617673715.230588,1,0.11,1617673717.444757,-21.43132,-31.54628,0
1617673717.488192,67,0,0,0,0,0,0,0,0,0,1617673717.477237,0.6673431396484375,15.61624145507812,-38.5401611328125,344.2720031738281,351.3003540039062,16.6944465637207,1047919.876113292,-0.0222320556640625,-0.1021270751953125,-1.000473022460938,1047919.854942292,-0.02211329154670238,0.05994056537747383,-0.04731478542089462,1047919.847633292,12.17117309570312,50.07144165039062,-108.8785705566406,1047919.817585292,-0.2488745577100799,-0.02012346928341051,0.1025900149797494,0.005015598610043526,0.01443561725318432,-0.06450315564870834,-0.006884939968585968,0.003441676497459412,0.005832374095916748,2,0.04962632070317016,-0.01633407007007457,-0.1244587473133112,0.9908483786047345,-0.02001631446182728,-0.102410152554512,-0.9945408701896667,0.7383098602294922,15.24978256225586,-37.87990570068359,-1,2,1047918.03367,1,2,1617673715.622839,1617673410.617,47,1.531854,0,0,29.99327,0,0,1617673549.220759,1047916.710405,0,-0.7609863,98.16434,1617673716.238351,587422867,1685438189,0,0,1,1617673715.230588,1,0.11,1617673717.444757,-21.43132,-31.54628,0
1617673717.516775,68,0,0,0,0,0,0,0,0,0,1617673717.497086,0.6866226196289062,15.59446716308594,-38.57051086425781,344.326171875,351.3545227050781,16.69439888000488,1047919.909735292,-0.025146484375,-0.103759765625,-0.991607666015625,1047919.888566292,-0.007591873407363892,0.04525216668844223,-0.05131671577692032,1047919.907628292,12.10406494140625,50.14411926269531,-108.9271697998047,1047919.877358292,-0.2519985425718552,-0.0174641260823808,0.1006144659902241,-0.01678039878606796,0.03782970830798149,-0.04791614040732384,-0.004857145249843597,-0.001682251691818237,-0.005682110786437988,2,0.04878955278247496,-0.01497077913028796,-0.1259379873328129,0.9907245391974053,-0.01737491972744465,-0.1004447937011719,-0.9947909116744995,0.6924543380737305,15.55736541748047,-38.55006408691406,-1,2,1047918.03367,1,2,1617673715.622839,1617673410.617,47,1.531854,0,0,29.99327,0,0,1617673549.220759,1047916.710405,0,-0.7609863,98.16434,1617673716.238351,587422867,1685438189,0,0,1,1617673715.230588,1,0.11,1617673717.510986,-22.54588,-28.37626,0
1617673717.560514,69,0,0,0,0,0,0,0,0,0,1617673717.557159,0.6993198394775391,15.6081657409668,-38.54885101318359,344.4410400390625,351.4693908691406,16.69425582885742,1047919.943357292,-0.022125244140625,-0.085723876953125,-1.019577026367188,1047919.922188292,-0.04910815879702568,0.04711664468050003,-0.02769394591450691,1047919.907628292,12.10406494140625,50.14411926269531,-108.9271697998047,1047919.877358292,-0.2519985425718552,-0.0174641260823808,0.1006144659902241,-0.01678039878606796,0.03782970830798149,-0.04791614040732384,-0.004857145249843597,-0.001682251691818237,-0.005682110786437988,2,0.04878955278247496,-0.01497077913028796,-0.1259379873328129,0.9907245391974053,-0.01737491972744465,-0.1004447937011719,-0.9947909116744995,0.6924543380737305,15.55736541748047,-38.55006408691406,-1,2,1047918.03367,1,2,1617673715.622839,1617673410.617,47,1.531854,0,0,29.99327,0,0,1617673549.220759,1047916.710405,0,-0.7609863,98.16434,1617673716.238351,587422867,1685438189,0,0,1,1617673715.230588,1,0.11,1617673717.560477,-23.28554,-28.67639,0
1617673717.58659,70,0,0,0,0,0,0,0,0,0,1617673717.576965,0.7727584838867188,15.56770706176758,-38.31522369384766,344.5106506347656,351.5390014648438,16.69421005249023,1047919.976982292,-0.01824951171875,-0.0714874267578125,-1.027374267578125,1047919.955812292,-0.02636636048555374,0.01669961772859097,-0.05156705528497696,1047919.967617292,12.22430419921875,50.15203857421875,-108.6714935302734,1047919.937132292,-0.2542102529335191,-0.01523498579471417,0.0985687759948225,-0.06353150308132172,0.028174864128232,-0.02366890944540501,-0.00667488481849432,0.005696885287761688,-0.02411919832229614,2,0.04790116775615715,-0.01379152832915591,-0.1269777990512462,0.9906523124288251,-0.0151604488492012,-0.09840924292802811,-0.9950305223464966,0.7132511138916016,15.57001495361328,-38.46400451660156,-1,2,1047918.03367,1,2,1617673715.622839,1617673410.617,47,1.531854,0,0,29.99327,0,0,1617673549.220759,1047916.710405,0,-0.7609863,98.16434,1617673716.238351,587422867,1685438189,0,0,1,1617673715.230588,1,0.11,1617673717.57819,-23.28554,-29.13359,0
1617673717.616379,71,0,0,0,0,0,0,0,0,0,1617673717.596933,0.8001737594604492,15.5140266418457,-38.37401580810547,344.6026611328125,351.6310119628906,16.69417190551758,1047920.010604292,-0.0163726806640625,-0.0890045166015625,-0.9922332763671875,1047919.989434292,0.05657486245036125,-0.04682129994034767,-0.08957755565643311,1047919.967617292,12.22430419921875,50.15203857421875,-108.6714935302734,1047919.996906292,-0.2579528426232687,-0.01618439755171494,0.0985777931433776,0.0508144348859787,-0.05182401835918427,-0.08514031022787094,-3.868155181407928e-05,0.01795866340398788,-0.01824504137039185,2,0.04781857977038313,-0.01435187224346613,-0.1288540991841785,0.9904060276180588,-0.01610512100160122,-0.0984182134270668,-0.9950147867202759,0.7672643661499023,15.57821655273438,-38.52803802490234,-1,2,1047918.03367,1,2,1617673715.622839,1617673410.617,47,1.531854,0,0,29.99327,0,0,1617673549.220759,1047916.710405,0,-0.7609863,98.16434,1617673716.238351,587422867,1685438189,0,0,1,1617673715.230588,1,0.11,1617673717.611552,-23.28554,-29.3534,0
1617673717.646522,72,0,0,0,0,0,0,0,0,0,1617673717.636679,0.6229124069213867,15.53339004516602,-38.34670257568359,344.7855224609375,351.8138732910156,16.69413185119629,1047920.044225292,-0.0156097412109375,-0.103759765625,-0.9768524169921875,1047920.023056292,0.04270085692405701,0.01093680318444967,-0.07661594450473785,1047920.027611292,12.04165649414062,50.11250305175781,-108.7151947021484,1047919.996906292,-0.2579528426232687,-0.01618439755171494,0.0985777931433776,0.0508144348859787,-0.05182401835918427,-0.08514031022787094,-3.868155181407928e-05,0.01795866340398788,-0.01824504137039185,2,0.04781857977038313,-0.01435187224346613,-0.1288540991841785,0.9904060276180588,-0.01610512100160122,-0.0984182134270668,-0.9950147867202759,0.7672643661499023,15.57821655273438,-38.52803802490234,-1,2,1047918.03367,1,2,1617673715.622839,1617673410.617,47,1.531854,0,0,29.99327,0,0,1617673549.220759,1047916.710405,0,-0.7609863,98.16434,1617673716.238351,587422867,1685438189,0,0,1,1617673715.230588,1,0.11,1617673717.644466,-23.28554,-29.65653,0
1617673717.686346,73,0,0,0,0,0,0,0,0,0,1617673717.676728,0.5071573257446289,15.56898498535156,-38.57098388671875,344.9155883789062,351.9439392089844,16.69404792785645,1047920.077850292,-0.0102996826171875,-0.1030426025390625,-0.9829254150390625,1047920.056680292,0.01058260351419449,0.05812109261751175,-0.05698898434638977,1047920.027611292,12.04165649414062,50.11250305175781,-108.7151947021484,1047920.056680292,-0.2622383899617011,-0.0154023348502958,0.09917167658511229,-0.0006197122856974602,0.05285314843058586,-0.05511770769953728,0.002508655190467834,-0.002141281962394714,0.0141792893409729,2,0.04813297093190538,-0.01410579572811702,-0.1309576740016488,0.9901183222419634,-0.0153260501101613,-0.0990092009305954,-0.9949684739112854,0.498626708984375,15.57491302490234,-38.49603271484375,-1,2,1047918.03367,1,2,1617673715.622839,1617673410.617,47,1.531854,0,0,29.99327,0,0,1617673549.220759,1047916.710405,0,-0.7609863,98.16434,1617673716.238351,587422867,1685438189,0,0,1,1617673715.230588,1,0.11,1617673717.679845,-23.28554,-29.89775,0
1617673717.716138,74,0,0,0,0,0,0,0,0,0,1617673717.696401,0.6034259796142578,15.5274543762207,-38.37407684326172,344.9505004882812,351.9788513183594,16.69400787353516,1047920.111472292,-0.000946044921875,-0.089996337890625,-1.012237548828125,1047920.090302292,-0.009845173917710781,0.04510515928268433,-0.01760056428611279,1047920.087604292,12.06289672851562,50.10794067382812,-108.7536315917969,1047920.056680292,-0.2622383899617011,-0.0154023348502958,0.09917167658511229,-0.0006197122856974602,0.05285314843058586,-0.05511770769953728,0.002508655190467834,-0.002141281962394714,0.0141792893409729,2,0.04813297093190538,-0.01410579572811702,-0.1309576740016488,0.9901183222419634,-0.0153260501101613,-0.0990092009305954,-0.9949684739112854,0.498626708984375,15.57491302490234,-38.49603271484375,-1,2,1047918.03367,1,2,1617673715.622839,1617673410.617,47,1.531854,0,0,29.99327,0,0,1617673549.220759,1047917.660744,0,-0.7372131,98.16406,1617673716.238351,587422867,1685438189,0,0,1,1617673715.230588,1,0.11,1617673717.711551,-23.28554,-30.69177,0
1617673717.755913,75,0,0,0,0,0,0,0,0,0,1617673717.736576,0.6360979080200195,15.65642547607422,-38.48744964599609,344.9756164550781,352.0039672851562,16.69392967224121,1047920.145096292,-0.011260986328125,-0.0919647216796875,-0.9951629638671875,1047920.123924292,-0.006406500469893217,0.005882656667381525,-0.01734250411391258,1047920.147595292,11.970947265625,50.21327209472656,-108.8329162597656,1047920.116454292,-0.2638167914324233,-0.01357574949021241,0.09767296952631233,-0.01513767521828413,-0.02080780267715454,-0.01227109134197235,0.01108447462320328,0.008620068430900574,-0.01245677471160889,2,0.04750015905701775,-0.0131414085954196,-0.13169484120276,0.9900643897935122,-0.01351062953472137,-0.09751774370670319,-0.9951421022415161,0.6341381072998047,15.64269256591797,-38.48069000244141,-1,2,1047918.03367,1,2,1617673715.622839,1617673410.617,47,1.531854,0,0,29.99327,0,0,1617673549.220759,1047917.660744,0,-0.7372131,98.16406,1617673716.238351,587422867,1685438189,0,0,1,1617673715.230588,1,0.11,1617673717.744708,-23.28554,-30.96341,0
1617673717.785999,76,0,0,0,0,0,0,0,0,0,1617673717.775955,0.5826997756958008,15.63233184814453,-38.35031890869141,345.0163269042969,352.044677734375,16.69385719299316,1047920.178718292,-0.0112152099609375,-0.1021881103515625,-0.996673583984375,1047920.157548292,0.01809990778565407,0.02292076125741005,-0.02288134768605232,1047920.147595292,11.970947265625,50.21327209472656,-108.8329162597656,1047920.116454292,-0.2638167914324233,-0.01357574949021241,0.09767296952631233,-0.01513767521828413,-0.02080780267715454,-0.01227109134197235,0.01108447462320328,0.008620068430900574,-0.01245677471160889,2,0.04750015905701775,-0.0131414085954196,-0.13169484120276,0.9900643897935122,-0.01351062953472137,-0.09751774370670319,-0.9951421022415161,0.6341381072998047,15.64269256591797,-38.48069000244141,-1,2,1047918.03367,1,2,1617673715.622839,1617673410.617,47,1.531854,0,0,29.99327,0,0,1617673549.220759,1047917.660744,0,-0.7372131,98.16406,1617673716.238351,587422867,1685438189,0,0,1,1617673715.230588,1,0.11,1617673717.785941,-23.28554,-26.96883,0
1617673717.815838,77,0,0,0,0,0,0,0,0,0,1617673717.795943,0.6317844390869141,15.61037826538086,-38.39753723144531,345.0279541015625,352.0563049316406,16.69382095336914,1047920.212340292,-0.0039825439453125,-0.100555419921875,-1.015090942382812,1047920.191170292,0.01646419428288937,0.05744225531816483,-0.001280447817407548,1047920.207576292,12.13276672363281,50.16213989257812,-108.7149505615234,1047920.176228292,-0.2648357105575457,-0.01199084076966771,0.0979410540858253,0.009276366792619228,0.04888220503926277,-0.01476586610078812,0.001236669719219208,-0.001717984676361084,-0.001949489116668701,2,0.04773091832665069,-0.01239871243735114,-0.1321614766638934,0.9900006719773602,-0.01193309016525745,-0.09778454899787903,-0.9951360821723938,0.5948562622070312,15.65154266357422,-38.40964508056641,-1,2,1047918.03367,1,2,1617673715.622839,1617673410.617,47,1.531854,0,0,29.99327,0,0,1617673549.220759,1047917.660744,0,-0.7372131,98.16406,1617673716.238351,587422867,1685438189,0,0,1,1617673715.230588,1,0.11,1617673717.811318,-23.28554,-27.36851,0
1617673717.859445,78,0,0,0,0,0,0,0,0,0,1617673717.855797,0.581578254699707,15.64653778076172,-38.49346160888672,344.9976196289062,352.0259704589844,16.69372367858887,1047920.245964292,-0.010772705078125,-0.098785400390625,-0.992279052734375,1047920.224794292,-0.01408226322382689,-0.01694569364190102,0.003131611039862037,1047920.207576292,12.13276672363281,50.16213989257812,-108.7149505615234,1047920.236002292,-0.2646446019898935,-0.01084789602271772,0.09706689604956309,-0.03696553781628609,-0.007234633900225163,0.01150528155267239,0.002404280006885529,-0.001657202839851379,-5.125999450683594e-06,2,0.04737481324650608,-0.01177090026349556,-0.1320400349967196,0.9900416925332345,-0.01079661957919598,-0.09691453725099564,-0.9952341318130493,0.6284818649291992,15.61995315551758,-38.44844055175781,-1,2,1047918.03367,1,2,1617673715.622839,1617673410.617,47,1.531854,0,0,29.99327,0,0,1617673549.220759,1047917.660744,0,-0.7372131,98.16406,1617673716.238351,587422867,1685438189,0,0,1,1617673715.230588,1,0.11,1617673717.85941,-22.94932,-28.58997,0
1617673717.885416,79,0,0,0,0,0,0,0,0,0,1617673717.875785,0.6161317825317383,15.58202362060547,-38.51863861083984,344.9793395996094,352.0076904296875,16.69369506835938,1047920.279586292,-0.013427734375,-0.085296630859375,-0.9990692138671875,1047920.258416292,-0.0192210990935564,0.006918093655258417,0.0150053147226572,1047920.267562292,12.05165100097656,50.17701721191406,-108.9694976806641,1047920.236002292,-0.2646446019898935,-0.01084789602271772,0.09706689604956309,-0.03696553781628609,-0.007234633900225163,0.01150528155267239,0.002404280006885529,-0.001657202839851379,-5.125999450683594e-06,2,0.04737481324650608,-0.01177090026349556,-0.1320400349967196,0.9900416925332345,-0.01079661957919598,-0.09691453725099564,-0.9952341318130493,0.6284818649291992,15.61995315551758,-38.44844055175781,-1,2,1047918.03367,1,2,1617673715.622839,1617673410.617,47,1.531854,0,0,29.99327,0,0,1617673549.220759,1047917.660744,0,-0.7372131,98.16406,1617673716.238351,587422867,1685438189,0,0,1,1617673715.230588,1,0.11,1617673717.878124,-22.94932,-28.8775,0
1617673717.918162,80,0,0,0,0,0,0,0,0,0,1617673717.915631,0.6461467742919922,15.7536735534668,-38.56967926025391,344.9817504882812,352.0101013183594,16.69363594055176,1047920.313208292,-0.0167083740234375,-0.0991973876953125,-0.987548828125,1047920.292038292,0.04324600845575333,0.04953426495194435,-0.006539924535900354,1047920.267562292,12.05165100097656,50.17701721191406,-108.9694976806641,1047920.295776292,-0.2641304412908124,-0.01013334497631853,0.09670405325384186,0.03133199363946915,0.05887364968657494,-0.003999112173914909,-0.007507565431296825,0.005061738193035126,0.01268702745437622,2,0.04724528608364521,-0.0113811737834374,-0.1317688268970942,0.9900885305639502,-0.01008582767099142,-0.09655340015888214,-0.9952766895294189,0.6406402587890625,15.68115234375,-38.56570434570312,-1,2,1047918.03367,1,2,1617673715.622839,1617673410.617,47,1.531854,0,0,29.99327,0,0,1617673549.220759,1047917.660744,0,-0.7372131,98.16406,1617673716.238351,587422867,1685438189,0,0,1,1617673715.230588,1,0.11,1617673717.918125,-22.94932,-29.47319,0
1617673717.955415,81,0,0,0,0,0,0,0,0,0,1617673717.935832,0.7074432373046875,15.6490592956543,-38.50196838378906,344.9730529785156,352.0014038085938,16.6936092376709,1047920.346832292,-0.00421142578125,-0.1031494140625,-1.021697998046875,1047920.325662292,0.03760356828570366,0.07647852599620819,0.01016688346862793,1047920.327554292,12.14170837402344,50.22171020507812,-108.9141998291016,1047920.295776292,-0.2641304412908124,-0.01013334497631853,0.09670405325384186,0.03133199363946915,0.05887364968657494,-0.003999112173914909,-0.007507565431296825,0.005061738193035126,0.01268702745437622,2,0.04724528608364521,-0.0113811737834374,-0.1317688268970942,0.9900885305639502,-0.01008582767099142,-0.09655340015888214,-0.9952766895294189,0.6406402587890625,15.68115234375,-38.56570434570312,-1,2,1047918.03367,1,2,1617673715.622839,1617673410.617,47,1.531854,0,0,29.99327,0,0,1617673549.220759,1047917.660744,0,-0.7372131,98.16406,1617673716.238351,587422867,1685438189,0,0,1,1617673715.230588,1,0.11,1617673717.944421,-22.94932,-30.27956,0
1617673717.985222,82,0,0,0,0,0,0,0,0,0,1617673717.975432,0.7812881469726562,15.6522102355957,-38.59925842285156,344.8898315429688,351.9181823730469,16.69355773925781,1047920.380454292,-0.012969970703125,-0.0930023193359375,-1.001220703125,1047920.359284292,0.02080514654517174,-0.04010587558150291,0.04313655197620392,1047920.327554292,12.14170837402344,50.22171020507812,-108.9141998291016,1047920.355549292,-0.2632546119836672,-0.007467378492551853,0.09808486385611487,0.01822138391435146,-0.03582159429788589,0.04192847386002541,0.00180091755464673,-0.00685439258813858,-0.02174091339111328,2,0.04810892159484685,-0.01013100542505093,-0.1312702728155107,0.9901268147298461,-0.00743141770362854,-0.09792766720056534,-0.9951657652854919,0.7541360855102539,15.60836791992188,-38.56434631347656,-1,2,1047918.03367,1,2,1617673715.622839,1617673410.617,47,1.531854,0,0,29.99327,0,0,1617673549.220759,1047917.660744,0,-0.7372131,98.16406,1617673716.238351,587422867,1685438189,0,0,1,1617673715.230588,1,0.11,1617673717.97805,-22.94932,-30.57223,0
1617673718.026645,83,0,0,0,0,0,0,0,0,0,1617673718.015226,0.8007478713989258,15.60693740844727,-38.39089202880859,344.8065795898438,351.8349304199219,16.69350814819336,1047920.414078292,-0.0129241943359375,-0.0856475830078125,-0.9917755126953125,1047920.392906292,-0.03099866211414337,-0.03641846030950546,0.03144580870866776,1047920.387550292,12.32176208496094,50.16578674316406,-108.8560791015625,1047920.355549292,-0.2632546119836672,-0.007467378492551853,0.09808486385611487,0.01822138391435146,-0.03582159429788589,0.04192847386002541,0.00180091755464673,-0.00685439258813858,-0.02174091339111328,2,0.04810892159484685,-0.01013100542505093,-0.1312702728155107,0.9901268147298461,-0.00743141770362854,-0.09792766720056534,-0.9951657652854919,0.7541360855102539,15.60836791992188,-38.56434631347656,-1,2,1047918.03367,1,2,1617673715.622839,1617673410.617,47,1.531854,0,0,29.99327,0,0,1617673549.220759,1047917.660744,0,-0.7372131,98.16406,1617673716.238351,587422867,1685438189,0,0,1,1617673715.230588,1,0.11,1617673718.011637,-22.94932,-30.94477,0
1617673718.055156,84,0,0,0,0,0,0,0,0,0,1617673718.03505,0.7852554321289062,15.7042236328125,-38.543212890625,344.7852478027344,351.8135986328125,16.6934871673584,1047920.447700292,-0.0099029541015625,-0.0888824462890625,-1.001983642578125,1047920.426531292,0.01322019752115011,0.04216689616441727,0.01598535850644112,1047920.447544292,12.25564575195312,50.25425720214844,-108.8553009033203,1047920.415323292,-0.2609848939414282,-0.01018446566389163,0.09657119262711641,-0.02236492186784744,0.01350525766611099,0.02211580239236355,-0.002787366509437561,0.01077361404895782,0.003513514995574951,2,0.04719400600111977,-0.01132354634573841,-0.130212759965286,0.9902975645989804,-0.01013683713972569,-0.09642115980386734,-0.9952890276908875,0.8045101165771484,15.67003631591797,-38.50776672363281,-1,2,1047918.03367,1,2,1617673715.622839,1617673410.617,47,1.531854,0,0,29.99327,0,0,1617673549.220759,1047917.660744,0,-0.7372131,98.16406,1617673716.238351,587422867,1685438189,0,0,1,1617673715.230588,1,0.11,1617673718.044675,-22.94932,-28.74451,0
1617673718.087398,85,0,0,0,0,0,0,0,0,0,1617673718.075027,0.8261146545410156,15.69569778442383,-38.47001647949219,344.7746276855469,351.802978515625,16.69344139099121,1047920.481322292,-6.103515625e-05,-0.1021270751953125,-0.9998626708984375,1047920.460152292,0.06905470043420792,0.04017565026879311,-0.003183276392519474,1047920.447544292,12.25564575195312,50.25425720214844,-108.8553009033203,1047920.415323292,-0.2609848939414282,-0.01018446566389163,0.09657119262711641,-0.02236492186784744,0.01350525766611099,0.02211580239236355,-0.002787366509437561,0.01077361404895782,0.003513514995574951,2,0.04719400600111977,-0.01132354634573841,-0.130212759965286,0.9902975645989804,-0.01013683713972569,-0.09642115980386734,-0.9952890276908875,0.8045101165771484,15.67003631591797,-38.50776672363281,-1,2,1047918.03367,1,2,1617673715.622839,1617673410.617,47,1.531854,0,0,29.99327,0,0,1617673549.220759,1047917.660744,0,-0.7372131,98.16406,1617673716.238351,587422867,1685438189,0,0,1,1617673715.230588,1,0.11,1617673718.087334,-22.94932,-28.02922,0
1617673718.124752,86,0,0,0,0,0,0,0,0,0,1617673718.115072,0.8943271636962891,15.62838363647461,-38.50004577636719,344.7255554199219,351.75390625,16.69340324401855,1047920.514946292,0.0080108642578125,-0.115447998046875,-1.008987426757812,1047920.493777292,0.04080016165971756,0.03689143806695938,0.02442890964448452,1047920.507538292,12.33840942382812,50.23237609863281,-108.9191589355469,1047920.475097292,-0.260564693893135,-0.007913567376577231,0.09835829935726821,0.0622885599732399,0.02478116750717163,-0.006778109818696976,0.007493756711483002,0.004495590925216675,-0.01095271110534668,2,0.04822891616020568,-0.01030493813192685,-0.1299488820837021,0.9902933871738562,-0.007875236682593822,-0.09819978475570679,-0.9951355457305908,0.8262691497802734,15.65344619750977,-38.47579956054688,-1,2,1047918.03367,1,2,1617673715.622839,1617673410.617,47,1.531854,0,0,29.99327,0,0,1617673549.220759,1047917.660744,0,-0.7372131,98.16406,1617673716.238351,587422867,1685438189,0,0,1,1617673715.230588,1,0.11,1617673718.111567,-22.94932,-28.38194,0
1617673718.156806,87,0,0,0,0,0,0,0,0,0,1617673718.15475,0.8911123275756836,15.62404251098633,-38.64278411865234,344.5384216308594,351.5667724609375,16.6933650970459,1047920.548568292,-0.0077667236328125,-0.100250244140625,-0.99261474609375,1047920.527399292,-0.0121458787471056,-0.04671637341380119,0.08184772729873657,1047920.507538292,12.33840942382812,50.23237609863281,-108.9191589355469,1047920.534871292,-0.2577552455961503,-0.008805559816127455,0.09842332212052574,-0.03539762645959854,-0.04723793640732765,0.08934243023395538,0.006367191672325134,-0.01294152438640594,-0.001277148723602295,2,0.04821820785224403,-0.01068309376256233,-0.1285791088341894,0.9904686533807802,-0.00876283086836338,-0.09826449304819107,-0.9951217770576477,0.8594884872436523,15.63692474365234,-38.66131591796875,-1,2,1047918.03367,1,2,1617673715.622839,1617673410.617,47,1.531854,0,0,29.99327,0,0,1617673549.220759,1047917.660744,0,-0.7372131,98.16406,1617673716.238351,587422867,1685438189,0,0,1,1617673715.230588,1,0.11,1617673718.156764,-22.94932,-28.79117,0
1617673718.184476,88,0,0,0,0,0,0,0,0,0,1617673718.174872,0.9171514511108398,15.66647720336914,-38.56007385253906,344.4588623046875,351.4872131347656,16.69334983825684,1047920.582190875,-0.0126495361328125,-0.0831146240234375,-0.9952850341796875,1047920.561021875,-0.03625281155109406,-0.04469556733965874,0.06558779627084732,1047920.567536875,12.35176086425781,50.28378295898438,-108.9687194824219,1047920.534871292,-0.2577552455961503,-0.008805559816127455,0.09842332212052574,-0.03539762645959854,-0.04723793640732765,0.08934243023395538,0.006367191672325134,-0.01294152438640594,-0.001277148723602295,2,0.04821820785224403,-0.01068309376256233,-0.1285791088341894,0.9904686533807802,-0.00876283086836338,-0.09826449304819107,-0.9951217770576477,0.8594884872436523,15.63692474365234,-38.66131591796875,-1,2,1047918.03367,1,2,1617673715.622839,1617673410.617,47,1.531854,0,0,29.99327,0,0,1617673549.220759,1047917.660744,0,-0.7372131,98.16406,1617673716.238351,587422867,1685438189,0,0,1,1617673715.230588,1,0.11,1617673718.178095,-22.94932,-29.41115,0
1617673718.224237,89,0,0,0,0,0,0,0,0,0,1617673718.214343,0.87701416015625,15.70934295654297,-38.58718872070312,344.3766174316406,351.4049682617188,16.69331932067871,1047920.615814875,-0.0188446044921875,-0.0997314453125,-0.97564697265625,1047920.594645875,0.01467827893793583,-0.01726021245121956,0.02805959805846214,1047920.567536875,12.35176086425781,50.28378295898438,-108.9687194824219,1047920.594645875,-0.2540917470217939,-0.01104633879833875,0.09685772229063989,0.003470472060143948,-0.02252949774265289,0.02993269264698029,-0.004005055874586105,0.01028060168027878,0.007703423500061035,2,0.04732005624518443,-0.01160586149956236,-0.1268191181367849,0.9907285272777926,-0.01099434029310942,-0.09670635312795639,-0.995252251625061,0.8954057693481445,15.78712463378906,-38.63002014160156,-1,2,1047918.03367,1,2,1617673715.622839,1617673410.617,47,1.531854,0,0,29.99327,0,0,1617673549.220759,1047917.660744,0,-0.7372131,98.16406,1617673716.238351,587422867,1685438189,0,0,1,1617673715.230588,1,0.11,1617673718.21626,-22.94932,-29.31635,0
1617673718.254117,90,0,0,0,0,0,0,0,0,0,1617673718.234312,0.8699045181274414,15.64402008056641,-38.40338897705078,344.3188171386719,351.34716796875,16.69330596923828,1047920.649436875,-0.015777587890625,-0.092010498046875,-1.0032958984375,1047920.628267875,0.02314633131027222,0.08826674520969391,0.05521665140986443,1047920.627527875,12.30775451660156,50.22315979003906,-108.7852325439453,1047920.594645875,-0.2540917470217939,-0.01104633879833875,0.09685772229063989,0.003470472060143948,-0.02252949774265289,0.02993269264698029,-0.004005055874586105,0.01028060168027878,0.007703423500061035,2,0.04732005624518443,-0.01160586149956236,-0.1268191181367849,0.9907285272777926,-0.01099434029310942,-0.09670635312795639,-0.995252251625061,0.8954057693481445,15.78712463378906,-38.63002014160156,-1,2,1047918.03367,1,2,1617673715.622839,1617673410.617,47,1.531854,0,0,29.99327,0,0,1617673549.220759,1047917.660744,0,-0.7372131,98.16406,1617673716.238351,587422867,1685438189,0,0,1,1617673715.230588,1,0.11,1617673718.244063,-22.94932,-29.48911,0
1617673718.293905,91,0,0,0,0,0,0,0,0,0,1617673718.274458,1.007709503173828,15.7184944152832,-38.54316711425781,344.1943054199219,351.22265625,16.69328117370605,1047920.683060875,-0.0175323486328125,-0.0940399169921875,-1.012039184570312,1047920.661889875,0.03978895768523216,0.05808940157294273,0.04667296260595322,1047920.687517875,12.54087829589844,50.32286071777344,-108.9073486328125,1047920.654419875,-0.2511815857729692,-0.008085583810005483,0.09771928063884419,0.02219080179929733,0.05091482773423195,0.05122566595673561,-0.007456015795469284,0.006682522594928741,-0.009319841861724854,2,0.04794933400842857,-0.0101238696020774,-0.1253062789425874,0.9909070356012062,-0.008046922273933887,-0.09756383299827576,-0.9951967597007751,0.9539680480957031,15.68377304077148,-38.47160339355469,-1,2,1047918.03367,1,2,1617673715.622839,1617673410.617,47,1.531854,0,0,29.99327,0,0,1617673549.220759,1047917.660744,0,-0.7372131,98.16406,1617673716.238351,587422867,1685438189,0,0,1,1617673715.230588,1,0.11,1617673718.278875,-22.94932,-30.4164,0
1617673718.325636,92,0,0,0,0,0,0,0,0,0,1617673718.314003,1.158775329589844,15.75300598144531,-38.35069274902344,344.0640563964844,351.0924072265625,16.69326019287109,1047920.716682875,-0.023681640625,-0.08892822265625,-1.008987426757812,1047920.695513875,0.04884476959705353,-0.0007717840489931405,0.05526485294103622,1047920.687517875,12.54087829589844,50.32286071777344,-108.9073486328125,1047920.654419875,-0.2511815857729692,-0.008085583810005483,0.09771928063884419,0.02219080179929733,0.05091482773423195,0.05122566595673561,-0.007456015795469284,0.006682522594928741,-0.009319841861724854,2,0.04794933400842857,-0.0101238696020774,-0.1253062789425874,0.9909070356012062,-0.008046922273933887,-0.09756383299827576,-0.9951967597007751,0.9539680480957031,15.68377304077148,-38.47160339355469,-1,2,1047918.03367,1,2,1617673715.622839,1617673410.617,47,1.531854,0,0,29.99327,0,0,1617673549.220759,1047917.660744,0,-0.7372131,98.16406,1617673716.238351,587422867,1685438189,0,0,1,1617673715.230588,1,0.11,1617673718.311394,-22.94932,-30.72145,0
1617673718.353667,93,0,0,0,0,0,0,0,0,0,1617673718.334489,1.216061592102051,15.60182189941406,-37.93086242675781,344.0057067871094,351.0340576171875,16.69325256347656,1047920.750304875,-0.0167236328125,-0.1023101806640625,-1.020706176757812,1047920.729135875,0.07021557539701462,-0.02111354097723961,0.0528927743434906,1047920.747513875,12.75372314453125,50.25128173828125,-108.7253875732422,1047920.714192875,-0.2478860886301589,-0.007489639242263573,0.09964552071615969,0.04354127869009972,-0.01801573857665062,0.04753082990646362,-0.01482542231678963,0.01177322119474411,-0.01798886060714722,2,0.04895738193370057,-0.009868266681934787,-0.1236567441040763,0.9910675645780418,-0.00745241716504097,-0.09948070347309113,-0.995011568069458,1.185737609863281,15.69819259643555,-38.21129608154297,-1,2,1047918.03367,1,2,1617673715.622839,1617673410.617,47,1.531854,0,0,29.99327,0,0,1617673549.220759,1047917.660744,0,-0.7372131,98.16406,1617673716.238351,587422867,1685438189,0,0,1,1617673715.230588,1,0.11,1617673718.344842,-22.94932,-28.35885,0
1617673718.399914,94,0,0,0,0,0,0,0,0,0,1617673718.393758,1.127090454101562,15.61505126953125,-38.79944610595703,343.6919860839844,350.7203369140625,16.6932487487793,1047920.783928875,-0.02362060546875,-0.0821990966796875,-1.017074584960938,1047920.762759875,0.1441414654254913,-0.03798093646764755,0.1079107522964478,1047920.747513875,12.75372314453125,50.25128173828125,-108.7253875732422,1047920.773966875,-0.2430033392620601,-0.01067228456883756,0.1043472715528401,0.1151380091905594,-0.0245534386485815,0.1071389243006706,-0.01355589460581541,0.01098788529634476,-0.01678735017776489,2,0.05111889847720593,-0.01161021110406958,-0.1213125266032175,0.9912291529553316,-0.01061403378844261,-0.1041580140590668,-0.9945040941238403,1.131829261779785,15.68433380126953,-38.79899597167969,-1,2,1047918.03367,1,2,1617673715.622839,1617673410.617,47,1.531854,0,0,29.99327,0,0,1617673549.220759,1047917.660744,0,-0.7372131,98.16406,1617673716.238351,587422867,1685438189,0,0,1,1617673715.230588,1,0.11,1617673718.399877,-22.94932,-28.48017,0
1617673718.423724,95,0,0,0,0,0,0,0,0,0,1617673718.413621,1.270444869995117,15.36542892456055,-38.55910491943359,343.6451416015625,350.6734924316406,16.69328689575195,1047920.817550875,-0.0186767578125,-0.0814208984375,-1.009384155273438,1047920.796381875,0.07475440204143524,-0.06013630703091621,0.04487266764044762,1047920.807499875,12.74571228027344,49.93136596679688,-108.9159851074219,1047920.773966875,-0.2430033392620601,-0.01067228456883756,0.1043472715528401,0.1151380091905594,-0.0245534386485815,0.1071389243006706,-0.01355589460581541,0.01098788529634476,-0.01678735017776489,2,0.05111889847720593,-0.01161021110406958,-0.1213125266032175,0.9912291529553316,-0.01061403378844261,-0.1041580140590668,-0.9945040941238403,1.131829261779785,15.68433380126953,-38.79899597167969,-1,2,1047918.03367,1,2,1617673715.622839,1617673410.617,47,1.531854,0,0,29.99327,0,0,1617673549.220759,1047917.660744,0,-0.7372131,98.16406,1617673716.238351,587422867,1685438189,0,0,1,1617673715.230588,1,0.11,1617673718.411633,-22.81294,-29.0188,0
1617673718.457522,96,0,0,0,0,0,0,0,0,0,1617673718.453631,1.142595291137695,15.3151969909668,-38.43415832519531,343.7400207519531,350.7683715820312,16.69337272644043,1047920.851172875,-0.006683349609375,-0.117431640625,-0.9833831787109375,1047920.830003875,0.01148594729602337,-0.102041944861412,-0.05469200760126114,1047920.807499875,12.74571228027344,49.93136596679688,-108.9159851074219,1047920.833740875,-0.2415749450951988,-0.01550161804472684,0.1063275409361107,-0.0003809081390500069,-0.1091150715947151,-0.05817367509007454,0.004030391573905945,0.01275880634784698,-0.008818686008453369,2,0.05181738565072331,-0.01408609521916515,-0.1207289933407968,0.9912320372083079,-0.01541345566511154,-0.1061273068189621,-0.9942330718040466,1.183468818664551,15.26538467407227,-38.38645172119141,-1,2,1047918.03367,1,2,1617673715.622839,1617673410.617,47,1.531854,0,0,29.99327,0,0,1617673549.220759,1047917.660744,0,-0.7372131,98.16406,1617673716.238351,587422867,1685438189,0,0,1,1617673715.230588,1,0.11,1617673718.457484,-22.81294,-26.36379,0
1617673718.493309,97,0,0,0,0,0,0,0,0,0,1617673718.473696,0.9808273315429688,15.39251708984375,-38.45692443847656,343.7827758789062,350.8111267089844,16.69338798522949,1047920.884796875,-0.0030517578125,-0.138580322265625,-0.9590606689453125,1047920.863627875,0.02382650226354599,-0.04832891747355461,-0.02810806781053543,1047920.867494875,12.38253784179688,50.02032470703125,-108.8841857910156,1047920.833740875,-0.2415749450951988,-0.01550161804472684,0.1063275409361107,-0.0003809081390500069,-0.1091150715947151,-0.05817367509007454,0.004030391573905945,0.01275880634784698,-0.008818686008453369,2,0.05181738565072331,-0.01408609521916515,-0.1207289933407968,0.9912320372083079,-0.01541345566511154,-0.1061273068189621,-0.9942330718040466,1.183468818664551,15.26538467407227,-38.38645172119141,-1,2,1047918.03367,1,2,1617673715.622839,1617673410.617,47,1.531854,0,0,29.99327,0,0,1617673549.220759,1047917.660744,0,-0.7372131,98.16406,1617673716.238351,587422867,1685438189,0,0,1,1617673715.230588,1,0.11,1617673718.477793,-20.32788,-26.69573,0
1617673718.52306,98,0,0,0,0,0,0,0,0,0,1617673718.513336,0.9014463424682617,15.4898796081543,-38.705078125,343.7237854003906,350.7521362304688,16.69337272644043,1047920.918418875,-0.0016326904296875,-0.1116790771484375,-0.966094970703125,1047920.897249875,0.03296540677547455,0.04499463737010956,0.04319673776626587,1047920.867494875,12.38253784179688,50.02032470703125,-108.8841857910156,1047920.893514875,-0.2428329177613749,-0.01840783580135865,0.1057751932348104,0.02789692208170891,0.03785325586795807,0.04110991209745407,0.01667122170329094,-0.02854666113853455,0.03258788585662842,2,0.05135835755613523,-0.01552565664311423,-0.1214268373305925,0.9911492816840899,-0.01830392144620419,-0.1055780574679375,-0.9942425489425659,0.8898143768310547,15.46968078613281,-38.69146728515625,-1,2,1047918.03367,1,2,1617673715.622839,1617673410.617,47,1.531854,0,0,29.99327,0,0,1617673549.220759,1047917.660744,0,-0.7372131,98.16406,1617673716.238351,587422867,1685438189,0,0,1,1617673715.230588,1,0.11,1617673718.515314,-20.32788,-27.20382,0
1617673718.566279,99,0,0,0,0,0,0,0,0,0,1617673718.553313,0.9736576080322266,15.37052154541016,-38.66481018066406,343.7077941894531,350.7361450195312,16.6933650970459,1047920.952043875,-0.002777099609375,-0.112213134765625,-0.9746246337890625,1047920.930871875,-0.04236210510134697,0.04885489121079445,0.002397910226136446,1047920.927483875,12.40583801269531,49.95114135742188,-109.0151824951172,1047920.893514875,-0.2428329177613749,-0.01840783580135865,0.1057751932348104,0.02789692208170891,0.03785325586795807,0.04110991209745407,0.01667122170329094,-0.02854666113853455,0.03258788585662842,2,0.05135835755613523,-0.01552565664311423,-0.1214268373305925,0.9911492816840899,-0.01830392144620419,-0.1055780574679375,-0.9942425489425659,0.8898143768310547,15.46968078613281,-38.69146728515625,-1,2,1047918.03367,1,2,1617673715.622839,1617673410.617,47,1.531854,0,0,29.99327,0,0,1617673549.220759,1047917.660744,0,-0.7372131,98.16406,1617673716.238351,587422867,1685438189,0,0,1,1617673715.230588,1,0.11,1617673718.543986,-20.32788,-27.71391,0
1617673718.592846,100,0,0,0,0,0,0,0,0,0,1617673718.57314,0.9647502899169922,15.44558334350586,-38.65269470214844,343.7303161621094,350.7586669921875,16.69339179992676,1047920.985664875,-0.0019989013671875,-0.12310791015625,-0.9920501708984375,1047920.964495875,-0.1165577694773674,0.03478620946407318,-0.01607910171151161,1047920.987479875,12.43840026855469,50.04063415527344,-108.7548522949219,1047920.953288875,-0.242017084346821,-0.01553894696935247,0.1041100262664507,-0.1118519678711891,0.04070797562599182,-0.01866499148309231,0.01267708092927933,-0.008291050791740417,0.01984071731567383,2,0.05071286262313424,-0.01398284620089594,-0.1209475816467125,0.9912640217365716,-0.0154541889205575,-0.1039220541715622,-0.9944653511047363,0.9850959777832031,15.44716262817383,-38.72195434570312,-1,2,1047918.03367,1,2,1617673715.622839,1617673410.617,47,1.531854,0,0,29.99327,0,0,1617673549.220759,1047917.660744,0,-0.7372131,98.16406,1617673716.238351,587422867,1685438189,0,0,1,1617673715.230588,1,0.11,1617673718.577029,-20.32788,-28.31438,0
1617673718.625858,101,0,0,0,0,0,0,0,0,0,1617673718.612829,1.006570816040039,15.43395233154297,-38.47312927246094,343.6952819824219,350.7236328125,16.6934814453125,1047921.019286875,-0.00445556640625,-0.1098785400390625,-1.003036499023438,1047920.998117875,-0.1088833436369896,0.03192437812685966,0.03382720425724983,1047920.987479875,12.43840026855469,50.04063415527344,-108.7548522949219,1047920.953288875,-0.242017084346821,-0.01553894696935247,0.1041100262664507,-0.1118519678711891,0.04070797562599182,-0.01866499148309231,0.01267708092927933,-0.008291050791740417,0.01984071731567383,2,0.05071286262313424,-0.01398284620089594,-0.1209475816467125,0.9912640217365716,-0.0154541889205575,-0.1039220541715622,-0.9944653511047363,0.9850959777832031,15.44716262817383,-38.72195434570312,-1,2,1047918.03367,1,2,1617673715.622839,1617673410.617,47,1.531854,0,0,29.99327,0,0,1617673549.220759,1047917.660744,0,-0.7372131,98.16406,1617673716.238351,587422867,1685438189,0,0,1,1617673715.230588,1,0.11,1617673718.611428,-20.32788,-28.82687,0
1617673718.662507,102,0,0,0,0,0,0,0,0,0,1617673718.653096,1.042786598205566,15.61962890625,-38.40036773681641,343.6058959960938,350.6342468261719,16.69352722167969,1047921.052911875,-0.008056640625,-0.1054229736328125,-1.003570556640625,1047921.031741875,-0.06317684054374695,0.07764339447021484,0.03878867626190186,1047921.047476875,12.49124145507812,50.22407531738281,-108.7959442138672,1047921.013061875,-0.2414999253285773,-0.01318740791187471,0.09824942033778371,-0.09412821382284164,0.03048694133758545,0.04306409880518913,0.009842784143984318,-0.01561702042818069,-0.006877481937408447,2,0.04795304720513553,-0.01245264206833089,-0.1206302317479782,0.9914604582460722,-0.01312343031167984,-0.09809143096208572,-0.9950909018516541,1.053867340087891,15.52077865600586,-38.49385833740234,-1,2,1047918.03367,1,2,1617673715.622839,1617673410.617,47,1.531854,0,0,29.99327,0,0,1617673549.220759,1047918.611013,0,-0.6949158,98.1636,1617673716.238351,587422867,1685438189,0,0,1,1617673715.230588,1,0.11,1617673718.644422,-20.32788,-29.03173,0
1617673718.697739,103,0,0,0,0,0,0,0,0,0,1617673718.692587,1.264311790466309,15.61629486083984,-38.32492065429688,343.4833374023438,350.5116882324219,16.69352722167969,1047921.086532875,0.0044097900390625,-0.1001739501953125,-1.05511474609375,1047921.065363875,-0.04773636162281036,0.137965589761734,0.05249197036027908,1047921.047476875,12.49124145507812,50.22407531738281,-108.7959442138672,1047921.072835875,-0.2388969172097987,-0.006997919933915069,0.09548298912325763,-0.05262640491127968,0.09917272627353668,0.05677052959799767,0.005806311964988708,-0.008208140730857849,-0.03988826274871826,2,0.04696654142538802,-0.009156963454346696,-0.1191938981544021,0.9917172699902104,-0.006965987384319305,-0.09533797204494476,-0.9954205751419067,1.223330497741699,15.63144302368164,-38.28730010986328,-1,2,1047918.03367,1,2,1617673715.622839,1617673410.617,47,1.531854,0,0,29.99327,0,0,1617673549.220759,1047918.611013,0,-0.6949158,98.1636,1617673716.238351,587422867,1685438189,0,0,1,1617673715.230588,1,0.11,1617673718.688289,-20.32788,-28.32219,0
1617673718.72239,104,0,0,0,0,0,0,0,0,0,1617673718.712531,1.366400718688965,15.67494583129883,-38.20551300048828,343.4080200195312,350.4363708496094,16.69354629516602,1047921.120154875,0.00335693359375,-0.103607177734375,-1.048919677734375,1047921.098985875,-0.003756654914468527,-0.05154281854629517,0.06411826610565186,1047921.107475875,12.80496215820312,50.30372619628906,-108.6223754882812,1047921.072835875,-0.2388969172097987,-0.006997919933915069,0.09548298912325763,-0.05262640491127968,0.09917272627353668,0.05677052959799767,0.005806311964988708,-0.008208140730857849,-0.03988826274871826,2,0.04696654142538802,-0.009156963454346696,-0.1191938981544021,0.9917172699902104,-0.006965987384319305,-0.09533797204494476,-0.9954205751419067,1.223330497741699,15.63144302368164,-38.28730010986328,-1,2,1047918.03367,1,2,1617673715.622839,1617673410.617,47,1.531854,0,0,29.99327,0,0,1617673549.220759,1047918.611013,0,-0.6949158,98.1636,1617673716.238351,587422867,1685438189,0,0,1,1617673715.230588,1,0.11,1617673718.711611,-20.32788,-28.57983,0
1617673718.76194,105,0,0,0,0,0,0,0,0,0,1617673718.752626,1.217215538024902,15.81702423095703,-38.39372253417969,343.2088317871094,350.2371826171875,16.69371032714844,1047921.153779875,-0.0059967041015625,-0.121551513671875,-1.002410888671875,1047921.132609875,0.05650056153535843,-0.2097713351249695,0.08794955909252167,1047921.137476875,12.71240234375,50.47943115234375,-108.7439117431641,1047921.132609875,-0.234791106319452,-0.01148632551273013,0.09577087292717033,0.04528524726629257,-0.21504245698452,0.08982514590024948,0.01312715653330088,-0.01585613936185837,-0.04517549276351929,2,0.04686498814883321,-0.01130346183221747,-0.117262913106141,0.9919300878973684,-0.0114334374666214,-0.09562453627586365,-0.9953517913818359,1.278236389160156,15.83861541748047,-38.28153228759766,-1,2,1047918.03367,1,2,1617673715.622839,1617673410.617,47,1.531854,0,0,29.99327,0,0,1617673549.220759,1047918.611013,0,-0.6949158,98.1636,1617673716.238351,587422867,1685438189,0,0,1,1617673715.230588,1,0.11,1617673718.757813,-20.32788,-29.39748,0
1617673718.792257,106,0,0,0,0,0,0,0,0,0,1617673718.772698,1.13300609588623,15.71736526489258,-38.32340240478516,343.0531005859375,350.0814514160156,16.69380760192871,1047921.187400875,-0.017822265625,-0.1127166748046875,-0.984222412109375,1047921.166231875,0.09398987889289856,-0.1755763441324234,0.1398985087871552,1047921.137476875,12.71240234375,50.47943115234375,-108.7439117431641,1047921.132609875,-0.234791106319452,-0.01148632551273013,0.09577087292717033,0.04528524726629257,-0.21504245698452,0.08982514590024948,0.01312715653330088,-0.01585613936185837,-0.04517549276351929,2,0.04686498814883321,-0.01130346183221747,-0.117262913106141,0.9919300878973684,-0.0114334374666214,-0.09562453627586365,-0.9953517913818359,1.278236389160156,15.83861541748047,-38.28153228759766,-1,2,1047918.03367,1,2,1617673715.622839,1617673410.617,47,1.531854,0,0,29.99327,0,0,1617673549.220759,1047918.611013,0,-0.6949158,98.1636,1617673716.238351,587422867,1685438189,0,0,1,1617673715.230588,1,0.11,1617673718.777554,-20.32788,-29.39748,0
1617673718.832058,107,0,0,0,0,0,0,0,0,0,1617673718.812465,1.006929397583008,15.7060432434082,-38.58278656005859,342.7245178222656,349.7528686523438,16.69399070739746,1047921.221025875,-0.0257415771484375,-0.104278564453125,-0.9875640869140625,1047921.199853875,0.05483155697584152,-0.1242622956633568,0.1399885267019272,1047921.197472875,12.41041564941406,50.36323547363281,-109.0196685791016,1047921.192383875,-0.2268562382936107,-0.02192992016298506,0.09983972569134644,0.05094832554459572,-0.1271499991416931,0.1470471173524857,0.00338633731007576,-0.01202036440372467,0.009230971336364746,2,0.04833599460079242,-0.01652820312284725,-0.1135808624328474,0.9922146779273205,-0.02181896381080151,-0.09967394173145294,-0.9947808980941772,0.9934549331665039,15.74657440185547,-38.52461242675781,-1,2,1047918.03367,1,2,1617673715.622839,1617673410.617,47,1.531854,0,0,29.99327,0,0,1617673549.220759,1047918.611013,0,-0.6949158,98.1636,1617673716.238351,587422867,1685438189,0,0,1,1617673715.230588,1,0.11,1617673718.816414,-20.32788,-29.84829,0
1617673718.877996,108,0,0,0,0,0,0,0,0,0,1617673718.87202,0.9744424819946289,15.55881881713867,-38.484375,342.3468627929688,349.3752136230469,16.69413566589355,1047921.254646875,-0.0372161865234375,-0.109039306640625,-0.9691162109375,1047921.233477875,0.006439523305743933,-0.1141294986009598,0.1057629138231277,1047921.257465875,12.4007568359375,50.24581909179688,-108.9212646484375,1047921.192383875,-0.2268562382936107,-0.02192992016298506,0.09983972569134644,0.05094832554459572,-0.1271499991416931,0.1470471173524857,0.00338633731007576,-0.01202036440372467,0.009230971336364746,2,0.04833599460079242,-0.01652820312284725,-0.1135808624328474,0.9922146779273205,-0.02181896381080151,-0.09967394173145294,-0.9947808980941772,0.9934549331665039,15.74657440185547,-38.52461242675781,-1,2,1047918.03367,1,2,1617673715.622839,1617673410.617,47,1.531854,0,0,29.99327,0,0,1617673549.220759,1047918.611013,0,-0.6949158,98.1636,1617673716.238351,587422867,1685438189,0,0,1,1617673715.230588,1,0.11,1617673718.844479,-20.32788,-29.9544,0
1617673718.891759,109,0,0,0,0,0,0,0,0,0,1617673718.87202,0.9744424819946289,15.55881881713867,-38.484375,342.3468627929688,349.3752136230469,16.69413566589355,1047921.288268875,-0.0431060791015625,-0.09637451171875,-0.981170654296875,1047921.267099875,-0.01570599153637886,0.01854199171066284,0.1065789088606834,1047921.287466875,12.3389892578125,50.29202270507812,-108.8166961669922,1047921.252156875,-0.2197767929907597,-0.02856941116115696,0.1012037447007686,-0.0225345678627491,-0.05979733169078827,0.1086328476667404,-0.007637161761522293,-0.007916644215583801,0.02508640289306641,2,0.04870555908917429,-0.01972632823749829,-0.1102339609019045,0.9925155797005678,-0.02841936238110065,-0.1010310724377632,-0.9944772720336914,0.9594306945800781,15.62886428833008,-38.47702026367188,-1,2,1047918.03367,1,2,1617673715.622839,1617673410.617,47,1.531854,0,0,29.99327,0,0,1617673549.220759,1047918.611013,0,-0.6949158,98.1636,1617673716.238351,587422867,1685438189,0,0,1,1617673715.230588,1,0.11,1617673718.878537,-20.32788,-28.47195,0
1617673718.935801,110,0,0,0,0,0,0,0,0,0,1617673718.931837,1.059865951538086,15.67403030395508,-38.56389617919922,342.0144653320312,349.0428161621094,16.69415092468262,1047921.321893875,-0.0323944091796875,-0.0816802978515625,-1.023162841796875,1047921.300723875,-0.01886743120849133,0.09222739934921265,0.09834707528352737,1047921.287466875,12.3389892578125,50.29202270507812,-108.8166961669922,1047921.311930875,-0.2135427497035393,-0.02608765920845713,0.0998418553133119,-0.02424163371324539,0.07168460637331009,0.0854661762714386,-0.009766034781932831,0.01666828244924545,-0.01519107818603516,2,0.04822352080917792,-0.01827036894166106,-0.107073975536243,0.9929127643111444,-0.02595479600131512,-0.09967605769634247,-0.9946813583374023,1.012763977050781,15.75314331054688,-38.54660797119141,-1,2,1047918.03367,1,2,1617673715.622839,1617673410.617,47,1.531854,0,0,29.99327,0,0,1617673549.220759,1047918.611013,0,-0.6949158,98.1636,1617673716.238351,587422867,1685438189,0,0,1,1617673715.230588,1,0.11,1617673718.911459,-20.32788,-28.93633,0
1617673718.961417,111,0,0,0,0,0,0,0,0,0,1617673718.951634,1.158199310302734,15.70867919921875,-38.35680389404297,341.9378356933594,348.9661865234375,16.69415473937988,1047921.355514875,-0.034698486328125,-0.086700439453125,-1.008163452148438,1047921.334345875,0.01307186018675566,0.01157729420810938,0.06549618393182755,1047921.347462875,12.62118530273438,50.31303405761719,-108.7412414550781,1047921.311930875,-0.2135427497035393,-0.02608765920845713,0.0998418553133119,-0.02424163371324539,0.07168460637331009,0.0854661762714386,-0.009766034781932831,0.01666828244924545,-0.01519107818603516,2,0.04822352080917792,-0.01827036894166106,-0.107073975536243,0.9929127643111444,-0.02595479600131512,-0.09967605769634247,-0.9946813583374023,1.012763977050781,15.75314331054688,-38.54660797119141,-1,2,1047918.03367,1,2,1617673715.622839,1617673410.617,47,1.531854,0,0,29.99327,0,0,1617673549.220759,1047918.611013,0,-0.6949158,98.1636,1617673716.238351,587422867,1685438189,0,0,1,1617673715.230588,1,0.11,1617673718.944909,-20.32788,-28.9977,0
1617673718.99772,112,0,0,0,0,0,0,0,0,0,1617673718.991586,1.067452430725098,15.78730773925781,-38.58265686035156,341.8014221191406,348.8297729492188,16.69416999816895,1047921.389136875,-0.0341339111328125,-0.095733642578125,-0.99896240234375,1047921.367967875,0.02179930545389652,0.01027660630643368,0.0588659793138504,1047921.347462875,12.62118530273438,50.31303405761719,-108.7412414550781,1047921.371704875,-0.2095185063493852,-0.02639551811143143,0.1001864997225485,0.009193998761475086,0.002719413489103317,0.05811421200633049,-0.00820949487388134,0.006986193358898163,-0.009145200252532959,2,0.04841517105707889,-0.01834405397283079,-0.1050846850130814,0.9931145810652362,-0.02626010961830616,-0.1000189855694771,-0.9946389198303223,1.124873161315918,15.67027282714844,-38.55926513671875,-1,2,1047918.03367,1,2,1617673715.622839,1617673410.617,47,1.531854,0,0,29.99327,0,0,1617673549.220759,1047918.611013,0,-0.6949158,98.1636,1617673716.238351,587422867,1685438189,0,0,1,1617673715.230588,1,0.11,1617673718.986965,-20.32788,-29.39577,0
1617673719.031068,113,0,0,0,0,0,0,0,0,0,1617673719.011624,1.190093040466309,15.69474411010742,-38.48785400390625,341.736328125,348.7646789550781,16.69417762756348,1047921.422760875,-0.0302581787109375,-0.0981597900390625,-0.985931396484375,1047921.401591875,0.0127195231616497,0.01420024130493402,0.05273964256048203,1047921.407457875,12.65336608886719,50.29151916503906,-108.90673828125,1047921.371704875,-0.2095185063493852,-0.02639551811143143,0.1001864997225485,0.009193998761475086,0.002719413489103317,0.05811421200633049,-0.00820949487388134,0.006986193358898163,-0.009145200252532959,2,0.04841517105707889,-0.01834405397283079,-0.1050846850130814,0.9931145810652362,-0.02626010961830616,-0.1000189855694771,-0.9946389198303223,1.124873161315918,15.67027282714844,-38.55926513671875,-1,2,1047918.03367,1,2,1617673715.622839,1617673410.617,47,1.531854,0,0,29.99327,0,0,1617673549.220759,1047918.611013,0,-0.6949158,98.1636,1617673716.238351,587422867,1685438189,0,0,1,1617673715.230588,1,0.11,1617673719.011526,-20.32788,-29.92439,0
1617673719.060864,114,0,0,0,0,0,0,0,0,0,1617673719.051395,1.297651290893555,15.67105102539062,-38.56362915039062,341.6206665039062,348.6490173339844,16.69419479370117,1047921.456382875,-0.02752685546875,-0.0991668701171875,-0.987060546875,1047921.435213875,0.007023821119219065,0.06551003456115723,0.046871367841959,1047921.437458875,12.69242858886719,50.38179016113281,-108.9776153564453,1047921.431478875,-0.206169624815798,-0.0261331835207581,0.09908423360026924,-0.008355789817869663,0.05299673229455948,0.04802752286195755,-0.004393471404910088,0.001250714063644409,0.01100605726242065,2,0.04791186188286949,-0.01807638855332384,-0.1034109294624926,0.9933196864685501,-0.02600204572081566,-0.09892218559980392,-0.9947553873062134,1.241402626037598,15.74954605102539,-38.51885986328125,-1,2,1047918.03367,1,2,1617673715.622839,1617673410.617,47,1.531854,0,0,29.99327,0,0,1617673549.220759,1047918.611013,0,-0.6949158,98.1636,1617673716.238351,587422867,1685438189,0,0,1,1617673715.230588,1,0.11,1617673719.056958,-20.32788,-30.28626,0
