loggingTime(txt),locationTimestamp_since1970(s),locationLatitude(WGS84),locationLongitude(WGS84),locationAltitude(m),locationSpeed(m/s),locationCourse(°),locationVerticalAccuracy(m),locationHorizontalAccuracy(m),locationFloor(Z),accelerometerTimestamp_sinceReboot(s),accelerometerAccelerationX(G),accelerometerAccelerationY(G),accelerometerAccelerationZ(G),motionTimestamp_sinceReboot(s),motionYaw(rad),motionRoll(rad),motionPitch(rad),motionRotationRateX(rad/s),motionRotationRateY(rad/s),motionRotationRateZ(rad/s),motionUserAccelerationX(G),motionUserAccelerationY(G),motionUserAccelerationZ(G),motionAttitudeReferenceFrame(txt),motionQuaternionX(R),motionQuaternionY(R),motionQuaternionZ(R),motionQuaternionW(R),motionGravityX(G),motionGravityY(G),motionGravityZ(G),motionMagneticFieldX(µT),motionMagneticFieldY(µT),motionMagneticFieldZ(µT),motionHeading(°),motionMagneticFieldCalibrationAccuracy(Z),activityTimestamp_sinceReboot(s),activity(txt),activityActivityConfidence(Z),activityActivityStartDate(txt),pedometerStartDate(txt),pedometerNumberofSteps(N),pedometerAverageActivePace(s/m),pedometerCurrentPace(s/m),pedometerCurrentCadence(steps/s),pedometerDistance(m),pedometerFloorAscended(N),pedometerFloorDescended(N),pedometerEndDate(txt),altimeterTimestamp_sinceReboot(s),altimeterReset(bool),altimeterRelativeAltitude(m),altimeterPressure(kPa),batteryState(N),batteryLevel(R)
2021-04-05 21:44:10.976 -0400,0,0,0,0,0,0,0,0,0,15877.270067375,-0.05419921875,-0.2262725830078125,-0.9768524169921875,15877.239885375,-2.955960549031367,-0.06482713519018907,0.2282038497550659,0.001686613075435162,0.03708891570568085,0.06410305947065353,0.01528119295835495,0.02119600772857666,-0.01056152582168579,XArbitraryZVertical,-0.02151175364583571,-0.116289006579937,-0.9890435020560558,0.08835790664031584,-0.06310222297906876,-0.2262283116579056,-0.9720281958580017,0,0,0,-1,-1,15835.42985475,unknown,2,2021-04-05 21:43:29.137 -0400,2021-04-05 19:23:45.401 -0400,749,1.41497,0,0,554.4654,0,0,2021-04-05 21:43:29.136 -0400,639366250.3225158,0,-2.42,98.1954,1,0.65
2021-04-05 21:44:11.010 -0400,0,0,0,0,0,0,0,0,0,15877.305254375,-0.05670166015625,-0.23046875,-0.981170654296875,15877.300249375,-2.953454876789826,-0.06009104167801561,0.2323803833823882,0.02994144149124622,0.04261692240834236,0.01027108728885651,0.0104212686419487,0.009149014949798584,0.00113445520401001,XArbitraryZVertical,-0.01882221357714947,-0.11816703565146,-0.9887468796343184,0.08978754732466886,-0.0584406666457653,-0.2302945703268051,-0.9713645577430725,0,0,0,-1,-1,15835.42985475,unknown,2,2021-04-05 21:43:29.137 -0400,2021-04-05 19:23:45.401 -0400,749,1.41497,0,0,554.4654,0,0,2021-04-05 21:43:29.136 -0400,639366250.3225158,0,-2.42,98.1954,1,0.65
2021-04-05 21:44:11.047 -0400,0,0,0,0,0,0,0,0,0,15877.340471375,-0.0547332763671875,-0.2298583984375,-0.975494384765625,15877.330400375,-2.954602170190548,-0.05895640773242884,0.2319934430671301,-0.005274046678096056,0.00980392936617136,-0.06416123360395432,-0.001616217195987701,-0.004289090633392334,-0.007866263389587402,XArbitraryZVertical,-0.01834761884707812,-0.1179143909883864,-0.9888306304300157,0.08929511176796337,-0.0573437325656414,-0.2299180179834366,-0.9715191125869751,0,0,0,-1,-1,15835.42985475,unknown,2,2021-04-05 21:43:29.137 -0400,2021-04-05 19:23:45.401 -0400,749,1.41497,0,0,554.4654,0,0,2021-04-05 21:43:29.136 -0400,639366250.3225158,0,-2.42,98.1954,1,0.65
2021-04-05 21:44:11.080 -0400,0,0,0,0,0,0,0,0,0,15877.375658375,-0.0522308349609375,-0.2197265625,-0.9884185791015625,15877.360582375,-2.956745435105802,-0.05843777440304596,0.2313012307951813,-0.03345660492777824,-0.003540781792253256,-0.06922635436058044,0.004954013973474503,0.001735806465148926,-0.01062297821044922,XArbitraryZVertical,-0.01825040488633729,-0.1175297174406575,-0.9889693359632463,0.08827964029833824,-0.05684914439916611,-0.2292442917823792,-0.9717074036598206,0,0,0,-1,-1,15835.42985475,unknown,2,2021-04-05 21:43:29.137 -0400,2021-04-05 19:23:45.401 -0400,749,1.41497,0,0,554.4654,0,0,2021-04-05 21:43:29.136 -0400,639366250.3225158,0,-2.42,98.1954,1,0.65
2021-04-05 21:44:11.116 -0400,0,0,0,0,0,0,0,0,0,15877.410845375,-0.0614166259765625,-0.21929931640625,-0.9710693359375,15877.390734375,-2.958687057158712,-0.05796683185109502,0.2297701871366052,-0.04139676317572594,0.02096716314554214,-0.04937436431646347,0.004013121128082275,0.007157519459724426,-0.01789164543151855,XArbitraryZVertical,-0.01820355586285376,-0.1167346543511551,-0.9891446050496456,0.08737717830499095,-0.05641178786754608,-0.227753758430481,-0.9720833301544189,0,0,0,-1,-1,15835.42985475,unknown,2,2021-04-05 21:43:29.137 -0400,2021-04-05 19:23:45.401 -0400,749,1.41497,0,0,554.4654,0,0,2021-04-05 21:43:29.136 -0400,639366250.3225158,0,-2.42,98.1954,1,0.65
2021-04-05 21:44:11.193 -0400,0,0,0,0,0,0,0,0,0,15877.446062375,-0.0439605712890625,-0.2174835205078125,-0.9597320556640625,15877.420915375,-2.959972277418693,-0.05566910874572869,0.2299382812542395,0.04924456402659416,0.08546531945466995,-0.02732502296566963,-0.007240679115056992,0.008618190884590149,0.001102805137634277,XArbitraryZVertical,-0.01713426623347026,-0.1167062967976693,-0.9892114848997882,0.08687237118474096,-0.05417593196034431,-0.2279174327850342,-0.9721721410751343,0,0,0,-1,-1,15835.42985475,unknown,2,2021-04-05 21:43:29.137 -0400,2021-04-05 19:23:45.401 -0400,749,1.41497,0,0,554.4654,0,0,2021-04-05 21:43:29.136 -0400,639366250.3225158,0,-2.42,98.1954,1,0.65
2021-04-05 21:44:11.234 -0400,0,0,0,0,0,0,0,0,0,15877.481249375,-0.058074951171875,-0.226715087890625,-0.967987060546875,15877.451097375,-2.960166284859711,-0.05427836075895714,0.2307500753105157,-0.02197821438312531,0.02114039100706577,0.0153918145224452,0.009051583707332611,0.01188044250011444,0.01063567399978638,XArbitraryZVertical,-0.01641993206029687,-0.1170455514551982,-0.9891861460675164,0.08684242563947368,-0.05281377956271172,-0.2287077754735947,-0.9720614552497864,0,0,0,-1,-1,15835.42985475,unknown,2,2021-04-05 21:43:29.137 -0400,2021-04-05 19:23:45.401 -0400,749,1.41497,0,0,554.4654,0,0,2021-04-05 21:43:29.136 -0400,639366250.3225158,0,-2.42,98.1954,1,0.65
2021-04-05 21:44:11.240 -0400,0,0,0,0,0,0,0,0,0,15877.516466375,-0.0539703369140625,-0.227447509765625,-0.9718780517578125,15877.511431375,-2.959112717937747,-0.0549793511670981,0.2289178508648033,0.05410808697342873,-0.006157091353088617,0.002523402683436871,-0.00365656241774559,0.00174984335899353,-0.003190755844116211,XArbitraryZVertical,-0.01679072383429098,-0.1161791203331727,-0.9892367491752667,0.08735694370470196,-0.05351810902357101,-0.2269237339496613,-0.9724409580230713,0,0,0,-1,-1,15835.42985475,unknown,2,2021-04-05 21:43:29.137 -0400,2021-04-05 19:23:45.401 -0400,749,1.41497,0,0,554.4654,0,0,2021-04-05 21:43:29.136 -0400,639366250.3225158,0,-2.42,98.1954,1,0.65
2021-04-05 21:44:11.258 -0400,0,0,0,0,0,0,0,0,0,15877.551653375,-0.056976318359375,-0.2295074462890625,-0.9729156494140625,15877.541582375,-2.958985768529344,-0.05511805583195597,0.2302940966678442,0.02255505323410034,-0.002622318919748068,-0.0001623453572392464,0.001588013023138046,0.0005875229835510254,0.005918979644775391,XArbitraryZVertical,-0.01678749147240139,-0.1168665489139425,-0.9891531900783685,0.08738570720839046,-0.05363573506474495,-0.2282638698816299,-0.9721207618713379,0,0,0,-1,-1,15835.42985475,unknown,2,2021-04-05 21:43:29.137 -0400,2021-04-05 19:23:45.401 -0400,749,1.41497,0,0,554.4654,0,0,2021-04-05 21:43:29.136 -0400,639366250.3225158,0,-2.42,98.1954,1,0.65
2021-04-05 21:44:11.292 -0400,0,0,0,0,0,0,0,0,0,15877.586840375,-0.055633544921875,-0.232391357421875,-0.97088623046875,15877.571764375,-2.958848234626524,-0.05460643542652926,0.2300872570007925,0.002647748216986656,0.03769797831773758,0.01034475676715374,-0.004979770630598068,1.992285251617432e-05,-0.004809796810150146,XArbitraryZVertical,-0.01653611222302615,-0.1167430833854015,-0.9891630481883679,0.08748750967596869,-0.05314094573259354,-0.2280624806880951,-0.9721952080726624,0,0,0,-1,-1,15835.42985475,unknown,2,2021-04-05 21:43:29.137 -0400,2021-04-05 19:23:45.401 -0400,749,1.41497,0,0,554.4654,0,0,2021-04-05 21:43:29.136 -0400,639366250.3225158,0,-2.42,98.1954,1,0.65
2021-04-05 21:44:11.327 -0400,0,0,0,0,0,0,0,0,0,15877.622057375,-0.05059814453125,-0.2247161865234375,-0.9725341796875,15877.601946375,-2.958505849437934,-0.05366178226678966,0.2309868466222999,0.04619017615914345,0.03083159402012825,0.0006919130682945251,-0.001789331436157227,-0.003391996026039124,-0.0009827613830566406,XArbitraryZVertical,-0.01600671119247989,-0.1171491496933018,-0.9891053389550973,0.08769531214256329,-0.05221150815486908,-0.2289382666349411,-0.9720396995544434,0,0,0,-1,-1,15835.42985475,unknown,2,2021-04-05 21:43:29.137 -0400,2021-04-05 19:23:45.401 -0400,749,1.41497,0,0,554.4654,0,0,2021-04-05 21:43:29.136 -0400,639366250.3225158,0,-2.42,98.1954,1,0.65
2021-04-05 21:44:11.362 -0400,0,0,0,0,0,0,0,0,0,15877.657244375,-0.04449462890625,-0.2242279052734375,-0.970458984375,15877.632097375,-2.958138215817126,-0.05356064883946873,0.2322454845466662,0.008403383195400238,-0.005901121534407139,0.02266725152730942,0.001499608159065247,0.005447179079055786,-0.0007776618003845215,XArbitraryZVertical,-0.01587598591948405,-0.1177697236493149,-0.9890191287540588,0.08785971407377119,-0.05209773778915405,-0.2301633059978485,-0.9717565178871155,0,0,0,-1,-1,15835.42985475,unknown,2,2021-04-05 21:43:29.137 -0400,2021-04-05 19:23:45.401 -0400,749,1.41497,0,0,554.4654,0,0,2021-04-05 21:43:29.136 -0400,639366250.3225158,0,-2.42,98.1954,1,0.65
2021-04-05 21:44:11.398 -0400,0,0,0,0,0,0,0,0,0,15877.692461375,-0.0518798828125,-0.218719482421875,-0.976959228515625,15877.662279375,-2.957460478732619,-0.05449405592765262,0.2315523993095018,-0.04949586093425751,-0.04504821449518204,0.02400287985801697,0.009022355079650879,0.002087101340293884,-0.0008507966995239258,XArbitraryZVertical,-0.01633036061166353,-0.1174737121773228,-0.9890208649159415,0.08815290894477461,-0.05301343277096748,-0.2294887602329254,-0.9718664884567261,0,0,0,-1,-1,15835.42985475,unknown,2,2021-04-05 21:43:29.137 -0400,2021-04-05 19:23:45.401 -0400,749,1.41497,0,0,554.4654,0,0,2021-04-05 21:43:29.136 -0400,639366250.3225158,0,-2.42,98.1954,1,0.65
2021-04-05 21:44:11.432 -0400,0,0,0,0,0,0,0,0,0,15877.727648375,-0.058746337890625,-0.218536376953125,-0.9759521484375,15877.722612375,-2.955925108552655,-0.05738250007771244,0.2291399126138699,-0.05276189371943474,-0.02817660011351109,0.01047245506197214,-0.0002698376774787903,0.006604790687561035,-0.000351250171661377,XArbitraryZVertical,-0.01778341484477011,-0.1164222658989958,-0.9890632109563134,0.08878944709800335,-0.05585198104381561,-0.2271399945020676,-0.9722592234611511,0,0,0,-1,-1,15835.42985475,unknown,2,2021-04-05 21:43:29.137 -0400,2021-04-05 19:23:45.401 -0400,749,1.41497,0,0,554.4654,0,0,2021-04-05 21:43:29.136 -0400,639366250.3225158,0,-2.42,98.1954,1,0.65
2021-04-05 21:44:11.467 -0400,0,0,0,0,0,0,0,0,0,15877.762834375,-0.0597076416015625,-0.2179718017578125,-0.9713592529296875,15877.752794375,-2.956108425715708,-0.05753090350246253,0.2274350396357518,-0.03581767529249191,-0.01351866312325001,-0.001454494660720229,-0.003719694912433624,0.006088554859161377,-0.005757451057434082,XArbitraryZVertical,-0.0179486517014604,-0.1155845666528356,-0.9891644640808446,0.08872341173619931,-0.05601844936609268,-0.2254793643951416,-0.9726361036300659,0,0,0,-1,-1,15835.42985475,unknown,2,2021-04-05 21:43:29.137 -0400,2021-04-05 19:23:45.401 -0400,749,1.41497,0,0,554.4654,0,0,2021-04-05 21:43:29.136 -0400,639366250.3225158,0,-2.42,98.1954,1,0.65
2021-04-05 21:44:11.502 -0400,0,0,0,0,0,0,0,0,0,15877.798052375,-0.0557861328125,-0.2193603515625,-0.967193603515625,15877.782946375,-2.956455888472979,-0.05781371258122002,0.226912980324885,-0.003799232188612223,-0.04282056540250778,-0.01466498896479607,0.0008041039109230042,0.006892159581184387,0.0009205937385559082,XArbitraryZVertical,-0.01813342496771629,-0.1153359281973192,-0.9892059676837843,0.08854538549658658,-0.05630031228065491,-0.2249707132577896,-0.9727376103401184,0,0,0,-1,-1,15835.42985475,unknown,2,2021-04-05 21:43:29.137 -0400,2021-04-05 19:23:45.401 -0400,749,1.41497,0,0,554.4654,0,0,2021-04-05 21:43:29.136 -0400,639366250.3225158,0,-2.42,98.1954,1,0.65
2021-04-05 21:44:11.538 -0400,0,0,0,0,0,0,0,0,0,15877.833238375,-0.062164306640625,-0.2249908447265625,-0.9618072509765625,15877.813127375,-2.956575236371064,-0.0591917583408933,0.2262433200691908,-0.01199576538056135,-0.04246972501277924,-0.001091672340407968,0.001436270773410797,0.003355696797370911,0.008804738521575928,XArbitraryZVertical,-0.01885372218716654,-0.1150647630299554,-0.9892353836599787,0.08842019411368685,-0.0576496347784996,-0.2243181765079498,-0.9728092551231384,0,0,0,-1,-1,15835.42985475,unknown,2,2021-04-05 21:43:29.137 -0400,2021-04-05 19:23:45.401 -0400,749,1.41497,0,0,554.4654,0,0,2021-04-05 21:43:29.136 -0400,639366250.3225158,0,-2.42,98.1954,1,0.65
2021-04-05 21:44:11.573 -0400,0,0,0,0,0,0,0,0,0,15877.868425375,-0.0620880126953125,-0.23028564453125,-0.981353759765625,15877.843309375,-2.956554930346744,-0.0605540124403744,0.2257382227507484,-0.01659911684691906,-0.04494592919945717,0.0009128055535256863,-0.003182649612426758,-0.001164868474006653,0.01103556156158447,XArbitraryZVertical,-0.01955037886854403,-0.1148755000688346,-0.9892489601698653,0.08836200943571905,-0.05898164212703705,-0.2238259166479111,-0.972842812538147,0,0,0,-1,-1,15835.42985475,unknown,2,2021-04-05 21:43:29.137 -0400,2021-04-05 19:23:45.401 -0400,749,1.41497,0,0,554.4654,0,0,2021-04-05 21:43:29.136 -0400,639366250.3225158,0,-2.42,98.1954,1,0.65
2021-04-05 21:44:11.608 -0400,0,0,0,0,0,0,0,0,0,15877.903643375,-0.05841064453125,-0.227203369140625,-0.986968994140625,15877.873461375,-2.956720006421562,-0.06177719401959775,0.2250284420316236,-0.02393610402941704,-0.02435002475976944,0.001205054111778736,-0.001174226403236389,-0.006281748414039612,-0.008639156818389893,XArbitraryZVertical,-0.02019863760440397,-0.1145770003403719,-0.9892828436963202,0.08822462042531622,-0.06018135696649551,-0.2231340855360031,-0.9729282259941101,0,0,0,-1,-1,15835.42985475,unknown,2,2021-04-05 21:43:29.137 -0400,2021-04-05 19:23:45.401 -0400,749,1.41497,0,0,554.4654,0,0,2021-04-05 21:43:29.136 -0400,639366250.3225158,0,-2.42,98.1954,1,0.65
2021-04-05 21:44:11.643 -0400,0,0,0,0,0,0,0,0,0,15877.938833625,-0.060455322265625,-0.2202606201171875,-0.994110107421875,15877.933798625,-2.956674399995032,-0.06306896198072517,0.2236733643361548,-0.01344939693808556,-0.03872345387935638,-0.005840172059834003,0.002207238227128983,-0.002597987651824951,-0.01342171430587769,XArbitraryZVertical,-0.02089949249880579,-0.1139645806789181,-0.9893411316742734,0.0882013016622481,-0.06145710498094559,-0.2218129634857178,-0.9731505513191223,0,0,0,-1,-1,15835.42985475,unknown,2,2021-04-05 21:43:29.137 -0400,2021-04-05 19:23:45.401 -0400,749,1.41497,0,0,554.4654,0,0,2021-04-05 21:43:29.136 -0400,639366250.3225158,0,-2.42,98.1954,1,0.65
2021-04-05 21:44:11.724 -0400,0,0,0,0,0,0,0,0,0,15877.974051625,-0.0611724853515625,-0.221282958984375,-0.9902496337890625,15877.963980625,-2.956592949086256,-0.06431635561440734,0.2232266330569178,-0.007893731817603111,-0.03564508259296417,0.00678833806887269,-5.155056715011597e-05,-0.001751869916915894,-0.01817631721496582,XArbitraryZVertical,-0.02153318803181054,-0.1137996210507443,-0.9893483389170622,0.08817987215814402,-0.06267731636762619,-0.2213773429393768,-0.9731719493865967,0,0,0,-1,-1,15835.42985475,unknown,2,2021-04-05 21:43:29.137 -0400,2021-04-05 19:23:45.401 -0400,749,1.41497,0,0,554.4654,0,0,2021-04-05 21:43:29.136 -0400,639366250.3225158,0,-2.42,98.1954,1,0.65
2021-04-05 21:44:11.730 -0400,0,0,0,0,0,0,0,0,0,15878.009237625,-0.0651702880859375,-0.223419189453125,-0.9722137451171875,15877.994162625,-2.956109469869909,-0.06542997810717516,0.2233703873115387,0.02714099548757076,-0.04070613533258438,0.0273357592523098,0.001976117491722107,-4.003942012786865e-05,-0.00724637508392334,XArbitraryZVertical,-0.02204966684750392,-0.1139250895938746,-0.9893071917252583,0.0883526084248332,-0.06375894695520401,-0.2215175330638885,-0.9730697870254517,0,0,0,-1,-1,15835.42985475,unknown,2,2021-04-05 21:43:29.137 -0400,2021-04-05 19:23:45.401 -0400,749,1.41497,0,0,554.4654,0,0,2021-04-05 21:43:29.136 -0400,639366250.3225158,0,-2.42,98.1954,1,0.65
2021-04-05 21:44:11.749 -0400,0,0,0,0,0,0,0,0,0,15878.044424625,-0.06524658203125,-0.219024658203125,-0.9710540771484375,15878.024313625,-2.955240382320431,-0.06670068419864571,0.2242563565820155,0.0410350076854229,-0.03742766007781029,0.02643362805247307,-0.001378186047077179,-0.002914547920227051,0.0001507997512817383,XArbitraryZVertical,-0.02258611245074156,-0.1144289536570552,-0.9892066566743167,0.08869087296424044,-0.06498227268457413,-0.2223813980817795,-0.9727917909622192,0,0,0,-1,-1,15835.42985475,unknown,2,2021-04-05 21:43:29.137 -0400,2021-04-05 19:23:45.401 -0400,749,1.41497,0,0,554.4654,0,0,2021-04-05 21:43:29.136 -0400,639366250.3225158,0,-2.42,98.1954,1,0.65
2021-04-05 21:44:11.785 -0400,0,0,0,0,0,0,0,0,0,15878.079641625,-0.0676422119140625,-0.2197723388671875,-0.972137451171875,15878.054495625,-2.954485297313077,-0.06782794177322599,0.2256841868055936,0.04626927152276039,-0.03920634835958481,0.01695264130830765,0.000810667872428894,0.004748672246932983,0.001346051692962646,XArbitraryZVertical,-0.02303149160052894,-0.115193288558696,-0.9890828022864041,0.08896840571421041,-0.0660572275519371,-0.223773255944252,-0.9724001288414001,0,0,0,-1,-1,15835.42985475,unknown,2,2021-04-05 21:43:29.137 -0400,2021-04-05 19:23:45.401 -0400,749,1.41497,0,0,554.4654,0,0,2021-04-05 21:43:29.136 -0400,639366250.3225158,0,-2.42,98.1954,1,0.65
2021-04-05 21:44:11.820 -0400,0,0,0,0,0,0,0,0,0,15878.114828625,-0.072509765625,-0.2257232666015625,-0.9641571044921875,15878.084677625,-2.953843654103961,-0.06905501145962019,0.226679759169958,0.03131917119026184,-0.03088165074586868,0.01962219551205635,0.0009355470538139343,0.00431506335735321,-0.0007895827293395996,XArbitraryZVertical,-0.02355308481934315,-0.1157473878436724,-0.9889855789709984,0.08919275011331526,-0.06723497807979584,-0.2247434705495834,-0.9720956087112427,0,0,0,-1,-1,15835.42985475,unknown,2,2021-04-05 21:43:29.137 -0400,2021-04-05 19:23:45.401 -0400,749,1.41497,0,0,554.4654,0,0,2021-04-05 21:43:29.136 -0400,639366250.3225158,0,-2.42,98.1954,1,0.65
2021-04-05 21:44:11.855 -0400,0,0,0,0,0,0,0,0,0,15878.150045625,-0.07110595703125,-0.22332763671875,-0.9638671875,15878.145010625,-2.953684843647853,-0.07071885360468803,0.2276548317162078,0.02278164401650429,-0.01349416188895702,-0.0107604619115591,-0.002742186188697815,0.001297786831855774,0.009437263011932373,XArbitraryZVertical,-0.02431928148070291,-0.1163052680804252,-0.9889051035302869,0.08915269936883008,-0.06883677840232849,-0.2256934940814972,-0.9717633128166199,0,0,0,-1,-1,15835.42985475,unknown,2,2021-04-05 21:43:29.137 -0400,2021-04-05 19:23:45.401 -0400,749,1.41497,0,0,554.4654,0,0,2021-04-05 21:43:29.136 -0400,639366250.3225158,0,-2.42,98.1954,1,0.65
2021-04-05 21:44:11.890 -0400,0,0,0,0,0,0,0,0,0,15878.185232625,-0.0667724609375,-0.2220916748046875,-0.971343994140625,15878.175161625,-2.954126080811968,-0.07101620322758145,0.2278338436778911,-0.00615237932652235,-0.01650924980640411,-0.01356953009963036,0.003815263509750366,0.001579001545906067,0.003532350063323975,XArbitraryZVertical,-0.02448328712904169,-0.1164015590266025,-0.9889113666907634,0.0889131617648551,-0.06912286579608917,-0.2258678823709488,-0.971702516078949,0,0,0,-1,-1,15835.42985475,unknown,2,2021-04-05 21:43:29.137 -0400,2021-04-05 19:23:45.401 -0400,749,1.41497,0,0,554.4654,0,0,2021-04-05 21:43:29.136 -0400,639366250.3225158,0,-2.42,98.1954,1,0.65
2021-04-05 21:44:11.925 -0400,0,0,0,0,0,0,0,0,0,15878.220419625,-0.0641632080078125,-0.2240142822265625,-0.981536865234375,15878.205343625,-2.954357815317665,-0.07148772673843788,0.2278168056964969,0.00518770469352603,-0.02280336432158947,-0.001497870776802301,0.004823021590709686,0.005239754915237427,-0.00304257869720459,XArbitraryZVertical,-0.02473074735440661,-0.1164112327329883,-0.9889168178376456,0.08877153243185389,-0.06958130747079849,-0.2258512824773788,-0.9716736078262329,0,0,0,-1,-1,15835.42985475,unknown,2,2021-04-05 21:43:29.137 -0400,2021-04-05 19:23:45.401 -0400,749,1.41497,0,0,554.4654,0,0,2021-04-05 21:43:29.136 -0400,639366250.3225158,0,-2.42,98.1954,1,0.65
2021-04-05 21:44:11.961 -0400,0,0,0,0,0,0,0,0,0,15878.255636625,-0.0680694580078125,-0.2286376953125,-0.9796600341796875,15878.235525625,-2.953996877326894,-0.07242918307412741,0.2281546950975725,0.01882163621485233,-0.03427734598517418,0.0118835661560297,0.006769850850105286,0.002059400081634521,-0.01047837734222412,XArbitraryZVertical,-0.02515883957758826,-0.1166244968389646,-0.9888704123785764,0.08888731766218748,-0.07049053907394409,-0.2261804193258286,-0.9715315103530884,0,0,0,-1,-1,15835.42985475,unknown,2,2021-04-05 21:43:29.137 -0400,2021-04-05 19:23:45.401 -0400,749,1.41497,0,0,554.4654,0,0,2021-04-05 21:43:29.136 -0400,639366250.3225158,0,-2.42,98.1954,1,0.65
2021-04-05 21:44:11.996 -0400,0,0,0,0,0,0,0,0,0,15878.290823625,-0.06787109375,-0.228973388671875,-0.972503662109375,15878.265677625,-2.95348928540647,-0.07317869098487612,0.2282645463200632,0.002354179043322802,-0.01241236552596092,0.02312406897544861,0.003147430717945099,-0.002350211143493652,-0.008206427097320557,XArbitraryZVertical,-0.02549446323838851,-0.116718543056205,-0.9888323123494837,0.08909200131504416,-0.07121687382459641,-0.2262874245643616,-0.9714536070823669,0,0,0,-1,-1,15835.42985475,unknown,2,2021-04-05 21:43:29.137 -0400,2021-04-05 19:23:45.401 -0400,749,1.41497,0,0,554.4654,0,0,2021-04-05 21:43:29.136 -0400,639366250.3225158,0,-2.42,98.1954,1,0.65
2021-04-05 21:44:12.032 -0400,0,0,0,0,0,0,0,0,0,15878.326010625,-0.0680999755859375,-0.22650146484375,-0.9740447998046875,15878.295858625,-2.952786414958669,-0.07345474721751762,0.2282117072248757,0.003957801032811403,-0.009544202126562595,0.02560407109558582,0.002043187618255615,-0.001440376043319702,-0.002003848552703857,XArbitraryZVertical,-0.02559250431717938,-0.1167137298492891,-0.9888003809442044,0.08942465472177523,-0.07148592919111252,-0.226235955953598,-0.9714458584785461,0,0,0,-1,-1,15835.42985475,unknown,2,2021-04-05 21:43:29.137 -0400,2021-04-05 19:23:45.401 -0400,749,1.41497,0,0,554.4654,0,0,2021-04-05 21:43:29.136 -0400,639366250.3225158,0,-2.42,98.1954,1,0.65
2021-04-05 21:44:12.066 -0400,0,0,0,0,0,0,0,0,0,15878.361227625,-0.06732177734375,-0.2208099365234375,-0.9738616943359375,15878.356192625,-2.951389516988244,-0.07453667814609863,0.2276697431774273,-0.01676591858267784,-0.02826020307838917,0.03176672384142876,0.006673857569694519,0.003799498081207275,0.002572238445281982,XArbitraryZVertical,-0.02607254193333435,-0.1165126030903638,-0.9887533805161201,0.09006499078042757,-0.07254604250192642,-0.2257080078125,-0.9714900851249695,0,0,0,-1,-1,15835.42985475,unknown,2,2021-04-05 21:43:29.137 -0400,2021-04-05 19:23:45.401 -0400,749,1.41497,0,0,554.4654,0,0,2021-04-05 21:43:29.136 -0400,639366250.3225158,0,-2.42,98.1954,1,0.65
2021-04-05 21:44:12.101 -0400,0,0,0,0,0,0,0,0,0,15878.396414625,-0.080108642578125,-0.2220458984375,-0.970367431640625,15878.386374625,-2.950228073715902,-0.07565116758663545,0.2270186030157481,-0.001781943487003446,-0.01776599511504173,0.04761917144060135,-0.002638876438140869,0.005514964461326599,-0.003374874591827393,XArbitraryZVertical,-0.02658808760705211,-0.1162565797589029,-0.9887219104373672,0.0905899435842976,-0.07363980263471603,-0.2250736355781555,-0.9715549349784851,0,0,0,-1,-1,15835.42985475,unknown,2,2021-04-05 21:43:29.137 -0400,2021-04-05 19:23:45.401 -0400,749,1.41497,0,0,554.4654,0,0,2021-04-05 21:43:29.136 -0400,639366250.3225158,0,-2.42,98.1954,1,0.65
2021-04-05 21:44:12.136 -0400,0,0,0,0,0,0,0,0,0,15878.431631625,-0.0820770263671875,-0.23052978515625,-0.962371826171875,15878.416525625,-2.948684525296656,-0.07595306465271388,0.2281748096305959,0.06466193497180939,0.003334599081426859,0.03444876149296761,-0.009170778095722198,0.003223389387130737,0.006871283054351807,XArbitraryZVertical,-0.02658983573229042,-0.1168618943483145,-0.98858450747476,0.09130741387225395,-0.07391331344842911,-0.2262000143527985,-0.9712725281715393,0,0,0,-1,-1,15835.42985475,unknown,2,2021-04-05 21:43:29.137 -0400,2021-04-05 19:23:45.401 -0400,749,1.41497,0,0,554.4654,0,0,2021-04-05 21:43:29.136 -0400,639366250.3225158,0,-2.42,98.1954,1,0.65
2021-04-05 21:44:12.230 -0400,0,0,0,0,0,0,0,0,0,15878.466818625,-0.0711669921875,-0.2280120849609375,-0.9623870849609375,15878.446707625,-2.94799704534049,-0.07549313805256862,0.2295364668286334,0.02860522456467152,0.01537931896746159,0.00638610078021884,-0.006619565188884735,-0.003552868962287903,0.01314318180084229,XArbitraryZVertical,-0.02625409080406065,-0.1175223982824946,-0.9884842694194971,0.09164117816640764,-0.07344329357147217,-0.2275261729955673,-0.9709984064102173,0,0,0,-1,-1,15835.42985475,unknown,2,2021-04-05 21:43:29.137 -0400,2021-04-05 19:23:45.401 -0400,749,1.41497,0,0,554.4654,0,0,2021-04-05 21:43:29.136 -0400,639366250.3225158,0,-2.42,98.1954,1,0.65
2021-04-05 21:44:12.236 -0400,0,0,0,0,0,0,0,0,0,15878.502005625,-0.07342529296875,-0.2210235595703125,-0.9677581787109375,15878.476889625,-2.948047677551676,-0.07582059539388177,0.2291078595399089,-0.01684129796922207,-0.02446204237639904,-0.007390581071376801,0.002601653337478638,-0.0009032189846038818,0.008684396743774414,XArbitraryZVertical,-0.026440392028599,-0.1173250790777023,-0.9885058385249835,0.09160729543459593,-0.07376863062381744,-0.2271087914705276,-0.9710714817047119,0,0,0,-1,-1,15835.42985475,unknown,2,2021-04-05 21:43:29.137 -0400,2021-04-05 19:23:45.401 -0400,749,1.41497,0,0,554.4654,0,0,2021-04-05 21:43:29.136 -0400,639366250.3225158,0,-2.42,98.1954,1,0.65
2021-04-05 21:44:12.242 -0400,0,0,0,0,0,0,0,0,0,15878.537222625,-0.0735931396484375,-0.227508544921875,-0.97674560546875,15878.507040625,-2.948271316583217,-0.07648954224438229,0.2289518504516223,0.01055204309523106,-0.02016519568860531,-0.003873976413160563,-0.0002860948443412781,0.006604745984077454,0.006320297718048096,XArbitraryZVertical,-0.02679195125713406,-0.1172756681561825,-0.9885158186319479,0.09146134372922682,-0.07442091405391693,-0.226956844329834,-0.9710572361946106,0,0,0,-1,-1,15835.42985475,unknown,2,2021-04-05 21:43:29.137 -0400,2021-04-05 19:23:45.401 -0400,749,1.41497,0,0,554.4654,0,0,2021-04-05 21:43:29.136 -0400,639366250.3225158,0,-2.42,98.1954,1,0.65
2021-04-05 21:44:12.277 -0400,0,0,0,0,0,0,0,0,0,15878.572409625,-0.0717010498046875,-0.2249755859375,-0.980865478515625,15878.567373625,-2.948659787231425,-0.07715352457917075,0.2287292911690795,-0.01516086608171463,0.0154185900464654,-0.005693580955266953,-0.002155162394046783,0.001367852091789246,-0.0055808424949646,XArbitraryZVertical,-0.02715404494130936,-0.117190857109016,-0.988536747748428,0.09123583966202857,-0.07506955415010452,-0.2267400920391083,-0.9710579514503479,0,0,0,-1,-1,15835.42985475,unknown,2,2021-04-05 21:43:29.137 -0400,2021-04-05 19:23:45.401 -0400,749,1.41497,0,0,554.4654,0,0,2021-04-05 21:43:29.136 -0400,639366250.3225158,0,-2.42,98.1954,1,0.65
2021-04-05 21:44:12.312 -0400,0,0,0,0,0,0,0,0,0,15878.607626625,-0.0702667236328125,-0.222808837890625,-0.97589111328125,15878.597555625,-2.948826562208686,-0.07692926441086927,0.2281010828313672,-0.0118715176358819,0.002851665252819657,0.01039678882807493,0.006961114704608917,0.001305267214775085,-0.01364672183990479,XArbitraryZVertical,-0.0270843489752603,-0.1168681213821414,-0.9885818560945775,0.09118193926407983,-0.07486271858215332,-0.2261282056570053,-0.9712165594100952,0,0,0,-1,-1,15835.42985475,unknown,2,2021-04-05 21:43:29.137 -0400,2021-04-05 19:23:45.401 -0400,749,1.41497,0,0,554.4654,0,0,2021-04-05 21:43:29.136 -0400,639366250.3225158,0,-2.42,98.1954,1,0.65
2021-04-05 21:44:12.347 -0400,0,0,0,0,0,0,0,0,0,15878.642813625,-0.0799407958984375,-0.2303009033203125,-0.9640350341796875,15878.627737625,-2.947977917474777,-0.07673089771446046,0.2284651368123249,0.02500983327627182,0.01436596550047398,0.04127469286322594,0.003512032330036163,0.002850070595741272,0.001285374164581299,XArbitraryZVertical,-0.02691845140837459,-0.1170503037791455,-0.9885258053392558,0.0916040945707762,-0.07466374337673187,-0.2264828085899353,-0.9711492657661438,0,0,0,-1,-1,15835.42985475,unknown,2,2021-04-05 21:43:29.137 -0400,2021-04-05 19:23:45.401 -0400,749,1.41497,0,0,554.4654,0,0,2021-04-05 21:43:29.136 -0400,639366250.3225158,0,-2.42,98.1954,1,0.65
2021-04-05 21:44:12.383 -0400,0,0,0,0,0,0,0,0,0,15878.678000625,-0.081451416015625,-0.225311279296875,-0.9658203125,15878.657888625,-2.947030960236528,-0.07686453339413279,0.2287203292427964,-0.01128816418349743,-0.004023387562483549,0.01148470584303141,-0.006357148289680481,-0.004011988639831543,0.00748908519744873,XArbitraryZVertical,-0.02691621219672822,-0.1171951957392688,-0.9884666028346082,0.09205807203580217,-0.07478908449411392,-0.2267313599586487,-0.9710816144943237,0,0,0,-1,-1,15835.42985475,unknown,2,2021-04-05 21:43:29.137 -0400,2021-04-05 19:23:45.401 -0400,749,1.41497,0,0,554.4654,0,0,2021-04-05 21:43:29.136 -0400,639366250.3225158,0,-2.42,98.1954,1,0.65
2021-04-05 21:44:12.418 -0400,0,0,0,0,0,0,0,0,0,15878.713217625,-0.0757598876953125,-0.2263336181640625,-0.96929931640625,15878.688070625,-2.94706348726627,-0.0766417926786863,0.2279082428586235,-0.01906524784862995,0.005752646364271641,-0.003856449387967587,-0.006864540278911591,0.0006291419267654419,0.005461215972900391,XArbitraryZVertical,-0.0268489470659324,-0.1167834920695561,-0.9885154824878523,0.09207488423535887,-0.07458685338497162,-0.2259403467178345,-0.9712815284729004,0,0,0,-1,-1,15835.42985475,unknown,2,2021-04-05 21:43:29.137 -0400,2021-04-05 19:23:45.401 -0400,749,1.41497,0,0,554.4654,0,0,2021-04-05 21:43:29.136 -0400,639366250.3225158,0,-2.42,98.1954,1,0.65
2021-04-05 21:44:12.453 -0400,0,0,0,0,0,0,0,0,0,15878.748404625,-0.0771942138671875,-0.2237701416015625,-0.9766082763671875,15878.718252625,-2.947400652679891,-0.07661836641512569,0.2273843702172737,-0.01715907827019691,-0.01094420440495014,-0.0180220864713192,-0.00123249739408493,-0.0004305392503738403,0.0039023756980896,XArbitraryZVertical,-0.02688339754116403,-0.1165191673631485,-0.9885599721849876,0.09192242024909587,-0.07457315176725388,-0.2254299968481064,-0.9714011549949646,0,0,0,-1,-1,15835.42985475,unknown,2,2021-04-05 21:43:29.137 -0400,2021-04-05 19:23:45.401 -0400,749,1.41497,0,0,554.4654,0,0,2021-04-05 21:43:29.136 -0400,639366250.3225158,0,-2.42,98.1954,1,0.65
2021-04-05 21:44:12.489 -0400,0,0,0,0,0,0,0,0,0,15878.783621625,-0.077056884765625,-0.223358154296875,-0.97369384765625,15878.778586625,-2.948103599974372,-0.07699975427295988,0.2269863887788517,0.02686682529747486,-0.003761229570955038,0.007828435860574245,0.002349212765693665,0.000783875584602356,-0.006870508193969727,XArbitraryZVertical,-0.02713281465666951,-0.1163306179173687,-0.9886087654447123,0.09156249386012646,-0.07495051622390747,-0.2250422388315201,-0.9714620113372803,0,0,0,-1,-1,15835.42985475,unknown,2,2021-04-05 21:43:29.137 -0400,2021-04-05 19:23:45.401 -0400,749,1.41497,0,0,554.4654,0,0,2021-04-05 21:43:29.136 -0400,639366250.3225158,0,-2.42,98.1954,1,0.65
2021-04-05 21:44:12.524 -0400,0,0,0,0,0,0,0,0,0,15878.818808625,-0.0802154541015625,-0.224822998046875,-0.966552734375,15878.808737625,-2.947702798574109,-0.07679600469187739,0.2281455183980189,0.02180914767086506,0.02360637485980988,0.0001948508433997631,-0.00577283650636673,0.002248808741569519,0.005106270313262939,XArbitraryZVertical,-0.02695057530574065,-0.1168991390286906,-0.9885299501700692,0.09174412728723416,-0.07473251968622208,-0.2261714935302734,-0.9712164998054504,0,0,0,-1,-1,15835.42985475,unknown,2,2021-04-05 21:43:29.137 -0400,2021-04-05 19:23:45.401 -0400,749,1.41497,0,0,554.4654,0,0,2021-04-05 21:43:29.136 -0400,639366250.3225158,0,-2.42,98.1954,1,0.65
2021-04-05 21:44:12.558 -0400,0,0,0,0,0,0,0,0,0,15878.853994625,-0.073699951171875,-0.219696044921875,-0.959320068359375,15878.838919625,-2.948173553282578,-0.07617462212117652,0.2279236888449801,-0.04110824316740036,0.02051264233887196,-0.02090578898787498,-0.004388891160488129,0.001681774854660034,0.007415056228637695,XArbitraryZVertical,-0.02668207170971559,-0.1167548158001488,-0.9885718680302886,0.09155311457659791,-0.07413282245397568,-0.2259553968906403,-0.9713127613067627,0,0,0,-1,-1,15835.42985475,unknown,2,2021-04-05 21:43:29.137 -0400,2021-04-05 19:23:45.401 -0400,749,1.41497,0,0,554.4654,0,0,2021-04-05 21:43:29.136 -0400,639366250.3225158,0,-2.42,98.1954,1,0.65
2021-04-05 21:44:12.595 -0400,0,0,0,0,0,0,0,0,0,15878.889212625,-0.077423095703125,-0.225860595703125,-0.951202392578125,15878.869101625,-2.94862724453409,-0.07561941882048358,0.2264369171970529,-0.04626166075468063,0.002791682723909616,-0.01320575922727585,-0.001484915614128113,0.004017382860183716,0.0121234655380249,XArbitraryZVertical,-0.02650838883721729,-0.1159890700336803,-0.9886811471665905,0.09139717865603091,-0.07361883670091629,-0.2245068252086639,-0.9716876745223999,0,0,0,-1,-1,15835.42985475,unknown,2,2021-04-05 21:43:29.137 -0400,2021-04-05 19:23:45.401 -0400,749,1.41497,0,0,554.4654,0,0,2021-04-05 21:43:29.136 -0400,639366250.3225158,0,-2.42,98.1954,1,0.65
2021-04-05 21:44:12.629 -0400,0,0,0,0,0,0,0,0,0,15878.92439804167,-0.07012939453125,-0.2195892333984375,-0.9817657470703125,15878.899252625,-2.949330889870693,-0.07594354846326533,0.2248581180419539,-0.0718662217259407,-0.01308589987456799,-0.02952075004577637,-0.003462500870227814,-0.002892479300498962,0.02081358432769775,XArbitraryZVertical,-0.02678801965977053,-0.1152146148843581,-0.988794499454795,0.09106870871556888,-0.07396058738231659,-0.2229680567979813,-0.9720159769058228,0,0,0,-1,-1,15835.42985475,unknown,2,2021-04-05 21:43:29.137 -0400,2021-04-05 19:23:45.401 -0400,749,1.41497,0,0,554.4654,0,0,2021-04-05 21:43:29.136 -0400,639366250.3225158,0,-2.42,98.1954,1,0.65
2021-04-05 21:44:12.699 -0400,0,0,0,0,0,0,0,0,0,15878.95958404167,-0.0677032470703125,-0.2219085693359375,-0.9866180419921875,15878.92943304167,-2.950765571938166,-0.07616883305245825,0.2215474015223257,-0.1465887427330017,-0.01747974753379822,-0.03520180657505989,0.002854734659194946,-0.002550497651100159,-0.002520203590393066,XArbitraryZVertical,-0.02714564473662429,-0.1135698246004582,-0.9890339627572914,0.09042630943623954,-0.07423532754182816,-0.2197394669055939,-0.9727300405502319,0,0,0,-1,-1,15835.42985475,unknown,2,2021-04-05 21:43:29.137 -0400,2021-04-05 19:23:45.401 -0400,749,1.41497,0,0,554.4654,0,0,2021-04-05 21:43:29.136 -0400,639366250.3225158,0,-2.42,98.1954,1,0.65
2021-04-05 21:44:12.743 -0400,0,0,0,0,0,0,0,0,0,15878.99480204167,-0.0758056640625,-0.2220306396484375,-0.989593505859375,15878.98976604167,-2.951484498785004,-0.07691269096481762,0.2173442170868037,-0.05429473891854286,-0.001054598018527031,0.01202923897653818,0.001573383808135986,-0.007675230503082275,-0.0138094425201416,XArbitraryZVertical,-0.02776125489504323,-0.1115164076518464,-0.9892774990011264,0.09013030908355371,-0.07502918690443039,-0.2156370878219604,-0.9735867977142334,0,0,0,-1,-1,15835.42985475,unknown,2,2021-04-05 21:43:29.137 -0400,2021-04-05 19:23:45.401 -0400,749,1.41497,0,0,554.4654,0,0,2021-04-05 21:43:29.136 -0400,639366250.3225158,0,-2.42,98.1954,1,0.65
2021-04-05 21:44:12.747 -0400,0,0,0,0,0,0,0,0,0,15879.02998804167,-0.076385498046875,-0.2180328369140625,-0.9891815185546875,15879.01994804167,-2.951267704223958,-0.07698473020554958,0.2159084493734169,-0.03070912137627602,-0.00255321990698576,0.01323598530143499,-0.004054777324199677,-0.00861966609954834,-0.02215886116027832,XArbitraryZVertical,-0.02785553527916037,-0.110813028849239,-0.9893413075830142,0.09026823450566972,-0.07512305676937103,-0.2142348736524582,-0.9738891124725342,0,0,0,-1,-1,15835.42985475,unknown,2,2021-04-05 21:43:29.137 -0400,2021-04-05 19:23:45.401 -0400,749,1.41497,0,0,554.4654,0,0,2021-04-05 21:43:29.136 -0400,639366250.3225158,0,-2.42,98.1954,1,0.65
2021-04-05 21:44:12.770 -0400,0,0,0,0,0,0,0,0,0,15879.06520604167,-0.0783233642578125,-0.213897705078125,-0.9567413330078125,15879.05009904167,-2.950580029200663,-0.07685647221084055,0.2165421126582464,0.04756974801421165,0.002457947470247746,0.02662709169089794,-0.0003906935453414917,-0.0006307810544967651,-0.003913223743438721,XArbitraryZVertical,-0.02772266538159311,-0.111129977227899,-0.9892791564760738,0.09060020938244273,-0.07498770952224731,-0.2148537784814835,-0.9737631678581238,0,0,0,-1,-1,15835.42985475,unknown,2,2021-04-05 21:43:29.137 -0400,2021-04-05 19:23:45.401 -0400,749,1.41497,0,0,554.4654,0,0,2021-04-05 21:43:29.136 -0400,639366250.3225158,0,-2.42,98.1954,1,0.65
2021-04-05 21:44:12.805 -0400,0,0,0,0,0,0,0,0,0,15879.10039204167,-0.0747833251953125,-0.2193603515625,-0.9425506591796875,15879.08028104167,-2.949764485798193,-0.07716538214844702,0.2174608638510338,-0.00271734525449574,-0.009683915413916111,0.01479047071188688,-0.003492586314678192,0.001807570457458496,0.02078396081924438,XArbitraryZVertical,-0.0277845275915497,-0.1116093781150979,-0.9891900714039527,0.09096414598304686,-0.07527326047420502,-0.2157509922981262,-0.9735427498817444,0,0,0,-1,-1,15835.42985475,unknown,2,2021-04-05 21:43:29.137 -0400,2021-04-05 19:23:45.401 -0400,749,1.41497,0,0,554.4654,0,0,2021-04-05 21:43:29.136 -0400,639366250.3225158,0,-2.42,98.1954,1,0.65
2021-04-05 21:44:12.840 -0400,0,0,0,0,0,0,0,0,0,15879.13557904167,-0.071136474609375,-0.2093658447265625,-0.9447174072265625,15879.11046304167,-2.950074982875575,-0.07744444033283281,0.2165898078946133,-0.0561155304312706,-0.01821582391858101,-0.0165548175573349,0.0007761344313621521,-0.004459932446479797,0.03115803003311157,XArbitraryZVertical,-0.02798306140740696,-0.1111872497295706,-0.9892455889891248,0.0908161870740401,-0.07555944472551346,-0.2149003595113754,-0.9737086892127991,0,0,0,-1,-1,15835.42985475,unknown,2,2021-04-05 21:43:29.137 -0400,2021-04-05 19:23:45.401 -0400,749,1.41497,0,0,554.4654,0,0,2021-04-05 21:43:29.136 -0400,639366250.3225158,0,-2.42,98.1954,1,0.65
2021-04-05 21:44:12.875 -0400,0,0,0,0,0,0,0,0,0,15879.17079604167,-0.0709686279296875,-0.204376220703125,-0.968414306640625,15879.14061504167,-2.950525300210014,-0.07756056573020503,0.2144863815185819,-0.0955180898308754,-0.01073428802192211,-0.008601918816566467,0.002404168248176575,0.004380106925964355,0.0330473780632019,XArbitraryZVertical,-0.02816956782793463,-0.1101465694321196,-0.9893729828522155,0.09063811133447384,-0.07570737600326538,-0.2128456085920334,-0.9741483926773071,0,0,0,-1,-1,15835.42985475,unknown,2,2021-04-05 21:43:29.137 -0400,2021-04-05 19:23:45.401 -0400,749,1.41497,0,0,554.4654,0,0,2021-04-05 21:43:29.136 -0400,639366250.3225158,0,-2.42,98.1954,1,0.65
2021-04-05 21:44:12.910 -0400,0,0,0,0,0,0,0,0,0,15879.20598304167,-0.0745697021484375,-0.1999359130859375,-0.9878997802734375,15879.20094804167,-2.951200036598858,-0.07809159710006282,0.2088460505049696,-0.04777093976736069,0.01935590803623199,0.01616314798593521,0.00550108402967453,0.009714648127555847,-0.005957484245300293,XArbitraryZVertical,-0.02874736121770108,-0.1073725707823026,-0.989681981089001,0.09041236984596519,-0.07631710916757584,-0.2073311656713486,-0.9752894639968872,0,0,0,-1,-1,15835.42985475,unknown,2,2021-04-05 21:43:29.137 -0400,2021-04-05 19:23:45.401 -0400,749,1.41497,0,0,554.4654,0,0,2021-04-05 21:43:29.136 -0400,639366252.8970207,0,-2.42,98.19553,1,0.65
2021-04-05 21:44:12.946 -0400,0,0,0,0,0,0,0,0,0,15879.24120004167,-0.0757293701171875,-0.200714111328125,-0.990997314453125,15879.23113004167,-2.950601208375275,-0.07743865985122127,0.2081367247855966,-0.03096551820635796,0.02599463611841202,0.02982018887996674,0.002525761723518372,0.008669719099998474,-0.01423013210296631,XArbitraryZVertical,-0.02842715243611659,-0.1070008304338328,-0.9896995251539905,0.09076082947660638,-0.07569164782762527,-0.2066372036933899,-0.9754854440689087,0,0,0,-1,-1,15835.42985475,unknown,2,2021-04-05 21:43:29.137 -0400,2021-04-05 19:23:45.401 -0400,749,1.41497,0,0,554.4654,0,0,2021-04-05 21:43:29.136 -0400,639366252.8970207,0,-2.42,98.19553,1,0.65
2021-04-05 21:44:12.981 -0400,0,0,0,0,0,0,0,0,0,15879.27638704167,-0.0812530517578125,-0.2028350830078125,-0.99072265625,15879.26131204167,-2.949706879367588,-0.07657987632025333,0.2072879824184351,-0.02419821359217167,0.0349113717675209,0.03435490280389786,-0.001243546605110168,0.004619628190994263,-0.01383841037750244,XArbitraryZVertical,-0.02799642515750659,-0.1065546766788516,-0.9897132316895034,0.09126964138386567,-0.07486727833747864,-0.205806702375412,-0.9757245779037476,0,0,0,-1,-1,15835.42985475,unknown,2,2021-04-05 21:43:29.137 -0400,2021-04-05 19:23:45.401 -0400,749,1.41497,0,0,554.4654,0,0,2021-04-05 21:43:29.136 -0400,639366252.8970207,0,-2.42,98.19553,1,0.65
2021-04-05 21:44:13.016 -0400,0,0,0,0,0,0,0,0,0,15879.31157404167,-0.0830841064453125,-0.2048492431640625,-0.987152099609375,15879.29146304167,-2.948653977672961,-0.07538244178849031,0.2069233195629018,0.04038485139608383,0.03992358595132828,0.03792215511202812,-0.005732737481594086,0.001455128192901611,-0.01498693227767944,XArbitraryZVertical,-0.02736595483800525,-0.1063341127150922,-0.9896996587074481,0.09186306088618118,-0.07370450347661972,-0.2054498344659805,-0.9758883118629456,0,0,0,-1,-1,15835.42985475,unknown,2,2021-04-05 21:43:29.137 -0400,2021-04-05 19:23:45.401 -0400,749,1.41497,0,0,554.4654,0,0,2021-04-05 21:43:29.136 -0400,639366252.8970207,0,-2.42,98.19553,1,0.65
2021-04-05 21:44:13.051 -0400,0,0,0,0,0,0,0,0,0,15879.34679104167,-0.0835113525390625,-0.212890625,-0.9991302490234375,15879.32164504167,-2.947481006184382,-0.07491394944308402,0.2090865733871104,0.1098519712686539,0.007678747177124023,0.02156510390341282,-0.009870231151580811,0.002717256546020508,-0.01167482137680054,XArbitraryZVertical,-0.02696341111316981,-0.1073980585687099,-0.9895440985333832,0.09241739740890781,-0.07321386784315109,-0.2075664550065994,-0.9754772782325745,0,0,0,-1,-1,15835.42985475,unknown,2,2021-04-05 21:43:29.137 -0400,2021-04-05 19:23:45.401 -0400,749,1.41497,0,0,554.4654,0,0,2021-04-05 21:43:29.136 -0400,639366252.8970207,0,-2.42,98.19553,1,0.65
2021-04-05 21:44:13.088 -0400,0,0,0,0,0,0,0,0,0,15879.38197804167,-0.0713958740234375,-0.2084197998046875,-0.9856719970703125,15879.38197804167,-2.950038524928049,-0.07338842853540688,0.2099350447167994,0.02904987335205078,0.0455402135848999,-0.05549728870391846,-0.005695097148418427,0.004874706268310547,-0.02068191766738892,XArbitraryZVertical,-0.02630390033040663,-0.1077134662413091,-0.9896392496354346,0.0912141663736646,-0.07171273231506348,-0.2083963751792908,-0.9754118323326111,0,0,0,-1,-1,15835.42985475,unknown,2,2021-04-05 21:43:29.137 -0400,2021-04-05 19:23:45.401 -0400,749,1.41497,0,0,554.4654,0,0,2021-04-05 21:43:29.136 -0400,639366252.8970207,0,-2.42,98.19553,1,0.65
2021-04-05 21:44:13.122 -0400,0,0,0,0,0,0,0,0,0,15879.41716504167,-0.079986572265625,-0.212188720703125,-0.9636077880859375,15879.41216004167,-2.951099314494822,-0.07263708745720419,0.2120702449764074,0.08446495234966278,0.02506736665964127,-0.03637955337762833,0.001001119613647461,0.001469403505325317,0.003446578979492188,XArbitraryZVertical,-0.02588426328723893,-0.108721186478383,-0.9895891786182512,0.09068065665445865,-0.07094739377498627,-0.2104842215776443,-0.9750193953514099,0,0,0,-1,-1,15835.42985475,unknown,2,2021-04-05 21:43:29.137 -0400,2021-04-05 19:23:45.401 -0400,749,1.41497,0,0,554.4654,0,0,2021-04-05 21:43:29.136 -0400,639366252.8970207,0,-2.42,98.19553,1,0.65
2021-04-05 21:44:13.192 -0400,0,0,0,0,0,0,0,0,0,15879.45238204167,-0.06817626953125,-0.216644287109375,-0.9857635498046875,15879.44231104167,-2.951862538376123,-0.07184566872331649,0.2135366461074308,-0.01360444724559784,0.03351446241140366,-0.01904743537306786,0.005212098360061646,-0.006984978914260864,0.002705216407775879,XArbitraryZVertical,-0.0254623493004902,-0.1094006048449894,-0.9895588746680052,0.09031257509787409,-0.07015348970890045,-0.2119175344705582,-0.9747663736343384,0,0,0,-1,-1,15835.42985475,unknown,2,2021-04-05 21:43:29.137 -0400,2021-04-05 19:23:45.401 -0400,749,1.41497,0,0,554.4654,0,0,2021-04-05 21:43:29.136 -0400,639366252.8970207,0,-2.42,98.19553,1,0.65
2021-04-05 21:44:13.234 -0400,0,0,0,0,0,0,0,0,0,15879.48756904167,-0.0662689208984375,-0.219879150390625,-0.986114501953125,15879.47249304167,-2.952904898490127,-0.07109017671749919,0.2129079143725542,0.0001441324129700661,0.03082630783319473,-0.03770975396037102,-0.002350836992263794,-0.00939999520778656,-0.01239866018295288,XArbitraryZVertical,-0.02517615184785855,-0.1090425061581221,-0.9896476396390083,0.08985235470828866,-0.06942649185657501,-0.2113030403852463,-0.9749518036842346,0,0,0,-1,-1,15835.42985475,unknown,2,2021-04-05 21:43:29.137 -0400,2021-04-05 19:23:45.401 -0400,749,1.41497,0,0,554.4654,0,0,2021-04-05 21:43:29.136 -0400,639366252.8970207,0,-2.42,98.19553,1,0.65
2021-04-05 21:44:13.239 -0400,0,0,0,0,0,0,0,0,0,15879.52278604167,-0.0678253173828125,-0.2278594970703125,-0.997802734375,15879.50267504167,-2.95372371923151,-0.07006656706259819,0.2131924519951159,0.008732317015528679,0.01493876986205578,-0.03091273456811905,0.003131933510303497,-0.008206382393836975,-0.01290690898895264,XArbitraryZVertical,-0.02470047588923079,-0.1091270973829899,-0.9896825459852173,0.08949661870858448,-0.06842426955699921,-0.2115811556577682,-0.9749623537063599,0,0,0,-1,-1,15835.42985475,unknown,2,2021-04-05 21:43:29.137 -0400,2021-04-05 19:23:45.401 -0400,749,1.41497,0,0,554.4654,0,0,2021-04-05 21:43:29.136 -0400,639366252.8970207,0,-2.42,98.19553,1,0.65
2021-04-05 21:44:13.263 -0400,0,0,0,0,0,0,0,0,0,15879.55797304167,-0.06866455078125,-0.2257537841796875,-0.9733734130859375,15879.53282604167,-2.954503951024182,-0.07016894372031715,0.2136720056528089,0.02488839253783226,-0.00438375398516655,-0.02252346090972424,0.0006916597485542297,-0.01580962538719177,-0.0229487419128418,XArbitraryZVertical,-0.0247705589917397,-0.1093591520005015,-0.9896915136163371,0.08909423313709823,-0.06851696223020554,-0.2120498269796371,-0.9748539924621582,0,0,0,-1,-1,15835.42985475,unknown,2,2021-04-05 21:43:29.137 -0400,2021-04-05 19:23:45.401 -0400,749,1.41497,0,0,554.4654,0,0,2021-04-05 21:43:29.136 -0400,639366252.8970207,0,-2.42,98.19553,1,0.65
2021-04-05 21:44:13.298 -0400,0,0,0,0,0,0,0,0,0,15879.59316004167,-0.074371337890625,-0.2193450927734375,-0.9755706787109375,15879.56300804167,-2.954782653375926,-0.06992356858560143,0.215172238351938,0.05703844130039215,0.0178822185844183,-0.009091092273592949,0.0025816410779953,-0.0123448371887207,-0.002223789691925049,XArbitraryZVertical,-0.02459206276987504,-0.1100866303940341,-0.9896294885831804,0.08893628759280893,-0.06825545430183411,-0.2135156989097595,-0.97455233335495,0,0,0,-1,-1,15835.42985475,unknown,2,2021-04-05 21:43:29.137 -0400,2021-04-05 19:23:45.401 -0400,749,1.41497,0,0,554.4654,0,0,2021-04-05 21:43:29.136 -0400,639366252.8970207,0,-2.42,98.19553,1,0.65
2021-04-05 21:44:13.333 -0400,0,0,0,0,0,0,0,0,0,15879.62837704167,-0.0631561279296875,-0.2178497314453125,-0.9933624267578125,15879.62334204167,-2.955385444400763,-0.06994066036663936,0.216398026279799,0.02235303074121475,-0.02214701659977436,0.004477779846638441,0.003800652921199799,-0.002877220511436462,-0.01782184839248657,XArbitraryZVertical,-0.02457478452135795,-0.1106860708353951,-0.9895923992272847,0.08860974459252097,-0.0682537704706192,-0.2147130519151688,-0.9742893576622009,0,0,0,-1,-1,15835.42985475,unknown,2,2021-04-05 21:43:29.137 -0400,2021-04-05 19:23:45.401 -0400,749,1.41497,0,0,554.4654,0,0,2021-04-05 21:43:29.136 -0400,639366252.8970207,0,-2.42,98.19553,1,0.65
2021-04-05 21:44:13.368 -0400,0,0,0,0,0,0,0,0,0,15879.66356404167,-0.06744384765625,-0.2285614013671875,-0.974853515625,15879.65352304167,-2.954673007549641,-0.07042604110498643,0.2186998198406604,0.1020127534866333,-0.009607770480215549,0.0280899666249752,0.003338329493999481,-0.004352807998657227,-0.01363569498062134,XArbitraryZVertical,-0.02466442962173099,-0.1118543982072589,-0.9894341521282396,0.08888360463229797,-0.06869170069694519,-0.2169605940580368,-0.9737605452537537,0,0,0,-1,-1,15835.42985475,unknown,2,2021-04-05 21:43:29.137 -0400,2021-04-05 19:23:45.401 -0400,749,1.41497,0,0,554.4654,0,0,2021-04-05 21:43:29.136 -0400,639366252.8970207,0,-2.42,98.19553,1,0.65
2021-04-05 21:44:13.403 -0400,0,0,0,0,0,0,0,0,0,15879.69878104167,-0.0734710693359375,-0.2336273193359375,-0.9695587158203125,15879.68367504167,-2.953522674185385,-0.07141046015631816,0.2215351531979245,0.07848982512950897,-0.02985000610351562,0.03115090355277061,0.001185685396194458,-0.01095479726791382,0.002737998962402344,XArbitraryZVertical,-0.02494930948568007,-0.1133140208669425,-0.9892205129596791,0.08933293855907432,-0.06960608810186386,-0.2197275161743164,-0.9730749130249023,0,0,0,-1,-1,15835.42985475,unknown,2,2021-04-05 21:43:29.137 -0400,2021-04-05 19:23:45.401 -0400,749,1.41497,0,0,554.4654,0,0,2021-04-05 21:43:29.136 -0400,639366252.8970207,0,-2.42,98.19553,1,0.65
2021-04-05 21:44:13.439 -0400,0,0,0,0,0,0,0,0,0,15879.73396804167,-0.0701446533203125,-0.235198974609375,-0.976593017578125,15879.71385704167,-2.952793188496711,-0.07206357360937503,0.2230189338579861,0.04956363514065742,-0.01081612799316645,0.008998995646834373,-0.00331404060125351,-0.01367315649986267,0.001648962497711182,XArbitraryZVertical,-0.02515859817195196,-0.1140856742291702,-0.9891002972215495,0.08962253295774798,-0.0702180489897728,-0.2211747914552689,-0.9727029800415039,0,0,0,-1,-1,15835.42985475,unknown,2,2021-04-05 21:43:29.137 -0400,2021-04-05 19:23:45.401 -0400,749,1.41497,0,0,554.4654,0,0,2021-04-05 21:43:29.136 -0400,639366252.8970207,0,-2.42,98.19553,1,0.65
2021-04-05 21:44:13.474 -0400,0,0,0,0,0,0,0,0,0,15879.76915504167,-0.058837890625,-0.23419189453125,-0.9741668701171875,15879.74403904167,-2.95276580885298,-0.07212558078935771,0.224930708116678,0.09277627617120743,-0.0122651532292366,-0.01268534362316132,0.0001031234860420227,-0.01216009259223938,-0.004317879676818848,XArbitraryZVertical,-0.02509437733267365,-0.115033492244527,-0.9889952064229156,0.08958836634160025,-0.07024776190519333,-0.2230388224124908,-0.9722751379013062,0,0,0,-1,-1,15835.42985475,unknown,2,2021-04-05 21:43:29.137 -0400,2021-04-05 19:23:45.401 -0400,749,1.41497,0,0,554.4654,0,0,2021-04-05 21:43:29.136 -0400,639366252.8970207,0,-2.42,98.19553,1,0.65
2021-04-05 21:44:13.509 -0400,0,0,0,0,0,0,0,0,0,15879.80437204167,-0.0628662109375,-0.2266387939453125,-0.9542236328125,15879.77419004167,-2.95255262845756,-0.07265001088906334,0.2280961708399317,0.1095219552516937,-0.04072479903697968,0.004521023016422987,0.01022021472454071,-0.00909075140953064,-0.005246996879577637,XArbitraryZVertical,-0.02518665423407326,-0.1166236112935765,-0.9888064389024461,0.08958987739992144,-0.07070603966712952,-0.2261234223842621,-0.9715291261672974,0,0,0,-1,-1,15835.42985475,unknown,2,2021-04-05 21:43:29.137 -0400,2021-04-05 19:23:45.401 -0400,749,1.41497,0,0,554.4654,0,0,2021-04-05 21:43:29.136 -0400,639366252.8970207,0,-2.42,98.19553,1,0.65
2021-04-05 21:44:13.545 -0400,0,0,0,0,0,0,0,0,0,15879.83955904167,-0.0606536865234375,-0.2251129150390625,-0.975250244140625,15879.83452304167,-2.951374895522666,-0.07480937467154876,0.2316773579001527,-0.004035399295389652,-0.03328863903880119,0.01698053814470768,0.009983383119106293,0.001827239990234375,0.002436041831970215,XArbitraryZVertical,-0.0260090504151675,-0.1185044857298754,-0.9885278126161302,0.08996043635490691,-0.0727427676320076,-0.2296103835105896,-0.9705604314804077,0,0,0,-1,-1,15835.42985475,unknown,2,2021-04-05 21:43:29.137 -0400,2021-04-05 19:23:45.401 -0400,749,1.41497,0,0,554.4654,0,0,2021-04-05 21:43:29.136 -0400,639366252.8970207,0,-2.42,98.19553,1,0.65
2021-04-05 21:44:13.580 -0400,0,0,0,0,0,0,0,0,0,15879.87477604167,-0.06536865234375,-0.22186279296875,-0.9738922119140625,15879.86470504167,-2.950383299680379,-0.07528826814699044,0.2318975496987742,0.02760948799550533,0.0007445309311151505,0.05812103301286697,0.01082584261894226,0.007748350501060486,-0.004317402839660645,XArbitraryZVertical,-0.02617606753542246,-0.1186477444489873,-0.9884646767688917,0.09041687341876341,-0.07320374995470047,-0.2298246920108795,-0.9704750776290894,0,0,0,-1,-1,15835.42985475,unknown,2,2021-04-05 21:43:29.137 -0400,2021-04-05 19:23:45.401 -0400,749,1.41497,0,0,554.4654,0,0,2021-04-05 21:43:29.136 -0400,639366252.8970207,0,-2.42,98.19553,1,0.65
2021-04-05 21:44:13.615 -0400,0,0,0,0,0,0,0,0,0,15879.90996304167,-0.0759735107421875,-0.2232513427734375,-0.9726409912109375,15879.89488704167,-2.948186906519972,-0.07576176040314359,0.2328641844584394,0.008749993517994881,-0.01773346401751041,0.07311757653951645,0.006187312304973602,0.007910788059234619,-0.001064658164978027,XArbitraryZVertical,-0.02623131348749153,-0.1191753446629932,-0.9883046369981755,0.09145075271439319,-0.07364640384912491,-0.2307653427124023,-0.970218300819397,0,0,0,-1,-1,15835.42985475,unknown,2,2021-04-05 21:43:29.137 -0400,2021-04-05 19:23:45.401 -0400,749,1.41497,0,0,554.4654,0,0,2021-04-05 21:43:29.136 -0400,639366252.8970207,0,-2.42,98.19553,1,0.65
2021-04-05 21:44:13.694 -0400,0,0,0,0,0,0,0,0,0,15879.94512704167,-0.081207275390625,-0.226104736328125,-0.9713134765625,15879.92501604167,-2.945882042278869,-0.07655009410945449,0.2321860538781518,-0.01986334100365639,-0.02567244879901409,0.07751215994358063,-0.001321427524089813,0.00577080249786377,-0.004385173320770264,XArbitraryZVertical,-0.02651784972956351,-0.118907221956289,-0.9882259746660776,0.0925592830749922,-0.07442319393157959,-0.230105459690094,-0.9703157544136047,0,0,0,-1,-1,15835.42985475,unknown,2,2021-04-05 21:43:29.137 -0400,2021-04-05 19:23:45.401 -0400,749,1.41497,0,0,554.4654,0,0,2021-04-05 21:43:29.136 -0400,639366252.8970207,0,-2.42,98.19553,1,0.65
2021-04-05 21:44:13.734 -0400,0,0,0,0,0,0,0,0,0,15879.98034504167,-0.0959625244140625,-0.235137939453125,-0.9451141357421875,15879.95519804167,-2.943113888612923,-0.07746339903495329,0.2317673481921666,0.03359848260879517,-0.0139245493337512,0.1097975000739098,-0.005890458822250366,0.003593295812606812,-0.0009701251983642578,XArbitraryZVertical,-0.02682598212579926,-0.1187800145831418,-0.9881080822409388,0.09388306226169761,-0.07531680166721344,-0.229697972536087,-0.9703433513641357,0,0,0,-1,-1,15835.42985475,unknown,2,2021-04-05 21:43:29.137 -0400,2021-04-05 19:23:45.401 -0400,749,1.41497,0,0,554.4654,0,0,2021-04-05 21:43:29.136 -0400,639366252.8970207,0,-2.42,98.19553,1,0.65
2021-04-05 21:44:13.739 -0400,0,0,0,0,0,0,0,0,0,15880.01553204167,-0.090728759765625,-0.2278594970703125,-0.9567108154296875,15879.98535004167,-2.940107242725551,-0.07845491508946406,0.2329776706226448,0.03687215223908424,-0.0178961418569088,0.06850874423980713,-0.01584500819444656,-0.004094257950782776,0.0216718316078186,XArbitraryZVertical,-0.02707403298552722,-0.1194647703858832,-0.9878851233927759,0.0952789797135874,-0.07625703513622284,-0.2308757603168488,-0.9699903130531311,0,0,0,-1,-1,15835.42985475,unknown,2,2021-04-05 21:43:29.137 -0400,2021-04-05 19:23:45.401 -0400,749,1.41497,0,0,554.4654,0,0,2021-04-05 21:43:29.136 -0400,639366252.8970207,0,-2.42,98.19553,1,0.65
2021-04-05 21:44:13.756 -0400,0,0,0,0,0,0,0,0,0,15880.05071804167,-0.0828399658203125,-0.2196502685546875,-0.9770355224609375,15880.04571304167,-2.939654998210226,-0.07994170791732894,0.230283204894958,-0.03969557955861092,-0.0366014689207077,-0.0172328744083643,-0.006617307662963867,0.005459755659103394,-0.0008972883224487305,XArbitraryZVertical,-0.0279223500928792,-0.118212140650821,-0.9879926371914642,0.09548243044398545,-0.07774851471185684,-0.2282532602548599,-0.9704924821853638,0,0,0,-1,-1,15835.42985475,unknown,2,2021-04-05 21:43:29.137 -0400,2021-04-05 19:23:45.401 -0400,749,1.41497,0,0,554.4654,0,0,2021-04-05 21:43:29.136 -0400,639366252.8970207,0,-2.42,98.19553,1,0.65
2021-04-05 21:44:13.791 -0400,0,0,0,0,0,0,0,0,0,15880.08593604167,-0.0763702392578125,-0.22430419921875,-0.9780120849609375,15880.07586504167,-2.939952778109101,-0.08133548397642816,0.2304933261199109,0.01158197596669197,-0.03519083186984062,-0.01484167296439409,0.0003923699259757996,0.00534386932849884,-0.004151999950408936,XArbitraryZVertical,-0.0286174938209946,-0.1183780993780698,-0.9879754767768169,0.09524746543394673,-0.07909718900918961,-0.2284578233957291,-0.9703353047370911,0,0,0,-1,-1,15835.42985475,unknown,2,2021-04-05 21:43:29.137 -0400,2021-04-05 19:23:45.401 -0400,749,1.41497,0,0,554.4654,0,0,2021-04-05 21:43:29.136 -0400,639366252.8970207,0,-2.42,98.19553,1,0.65
2021-04-05 21:44:13.826 -0400,0,0,0,0,0,0,0,0,0,15880.12112204167,-0.079254150390625,-0.2225799560546875,-0.9744415283203125,15880.10604704167,-2.940466290776353,-0.0828022014483026,0.2305928387824422,-0.01536376494914293,-0.02498824335634708,-0.01862560771405697,0.003568373620510101,0.001610800623893738,-0.009861111640930176,XArbitraryZVertical,-0.02936724151920719,-0.1184894849789485,-0.9879731927230032,0.09490436673479809,-0.08051843196153641,-0.2285547107458115,-0.9701955914497375,0,0,0,-1,-1,15835.42985475,unknown,2,2021-04-05 21:43:29.137 -0400,2021-04-05 19:23:45.401 -0400,749,1.41497,0,0,554.4654,0,0,2021-04-05 21:43:29.136 -0400,639366252.8970207,0,-2.42,98.19553,1,0.65
2021-04-05 21:44:13.861 -0400,0,0,0,0,0,0,0,0,0,15880.15634004167,-0.078216552734375,-0.23431396484375,-0.9617767333984375,15880.13622904167,-2.94062959255028,-0.08284061240503139,0.2303546443707809,0.02793873660266399,0.01591670326888561,0.007725454401224852,0.001916415989398956,0.005346179008483887,-0.003798067569732666,XArbitraryZVertical,-0.02940831556031063,-0.1183713615011738,-0.9879934407053869,0.09482765091258753,-0.08056019991636276,-0.2283228188753128,-0.9702467322349548,0,0,0,-1,-1,15835.42985475,unknown,2,2021-04-05 21:43:29.137 -0400,2021-04-05 19:23:45.401 -0400,749,1.41497,0,0,554.4654,0,0,2021-04-05 21:43:29.136 -0400,639366252.8970207,0,-2.42,98.19553,1,0.65
2021-04-05 21:44:13.896 -0400,0,0,0,0,0,0,0,0,0,15880.19152604167,-0.0751800537109375,-0.2304840087890625,-0.9911956787109375,15880.16638004167,-2.940289754201387,-0.08252307268741754,0.2317198726383385,0.04470632970333099,0.003362398128956556,-0.01374238729476929,0.0020098015666008,-0.004662126302719116,0.00818401575088501,XArbitraryZVertical,-0.02916003558806303,-0.119035004422162,-0.9879065717686348,0.09497859724239922,-0.08022633939981461,-0.2296517640352249,-0.9699607491493225,0,0,0,-1,-1,15835.42985475,unknown,2,2021-04-05 21:43:29.137 -0400,2021-04-05 19:23:45.401 -0400,749,1.41497,0,0,554.4654,0,0,2021-04-05 21:43:29.136 -0400,639366252.8970207,0,-2.42,98.19553,1,0.65
2021-04-05 21:44:13.932 -0400,0,0,0,0,0,0,0,0,0,15880.22671304167,-0.0761566162109375,-0.2337493896484375,-0.9852294921875,15880.22671304167,-2.941269570311977,-0.08381460825221672,0.2333952603993691,0.07114224135875702,-0.04102741554379463,0.003180204425007105,0.00652603805065155,-0.00118553638458252,-0.0207781195640564,XArbitraryZVertical,-0.02976915512193591,-0.1199084378774894,-0.9878407486619478,0.09437331972201163,-0.08144668489694595,-0.2312820553779602,-0.9694715142250061,0,0,0,-1,-1,15835.42985475,unknown,2,2021-04-05 21:43:29.137 -0400,2021-04-05 19:23:45.401 -0400,749,1.41497,0,0,554.4654,0,0,2021-04-05 21:43:29.136 -0400,639366252.8970207,0,-2.42,98.19553,1,0.65
2021-04-05 21:44:13.966 -0400,0,0,0,0,0,0,0,0,0,15880.26193004167,-0.091339111328125,-0.250091552734375,-0.934295654296875,15880.25689504167,-2.940572060945376,-0.08427812886269695,0.2365346104263593,0.1306831240653992,0.005083148833364248,0.01203346811234951,-0.006025567650794983,-0.007776007056236267,0.01416134834289551,XArbitraryZVertical,-0.02979227180402651,-0.1214895799374365,-0.9876246756906651,0.09460628933277521,-0.08183452486991882,-0.2343351393938065,-0.968705415725708,0,0,0,-1,-1,15835.42985475,unknown,2,2021-04-05 21:43:29.137 -0400,2021-04-05 19:23:45.401 -0400,749,1.41497,0,0,554.4654,0,0,2021-04-05 21:43:29.136 -0400,639366252.8970207,0,-2.42,98.19553,1,0.65
2021-04-05 21:44:14.002 -0400,0,0,0,0,0,0,0,0,0,15880.29711704167,-0.084381103515625,-0.23919677734375,-0.957427978515625,15880.28707704167,-2.941136860551415,-0.08356102321931867,0.2389367928762249,0.0008038305677473545,0.01402948517352343,-0.06303080916404724,-0.009758196771144867,-0.01242990791797638,0.03906190395355225,XArbitraryZVertical,-0.02934730394485214,-0.1226323328610845,-0.9875253653795854,0.09430712657232231,-0.08109261840581894,-0.2366697639226913,-0.9682000875473022,0,0,0,-1,-1,15835.42985475,unknown,2,2021-04-05 21:43:29.137 -0400,2021-04-05 19:23:45.401 -0400,749,1.41497,0,0,554.4654,0,0,2021-04-05 21:43:29.136 -0400,639366252.8970207,0,-2.42,98.19553,1,0.65
2021-04-05 21:44:14.038 -0400,0,0,0,0,0,0,0,0,0,15880.33233404167,-0.0652923583984375,-0.22052001953125,-0.99200439453125,15880.31722804167,-2.943614908331953,-0.08219701105824051,0.2374479835174985,-0.04880888387560844,0.02086286991834641,-0.0756000280380249,0.003064312040805817,0.004113420844078064,-0.002668857574462891,XArbitraryZVertical,-0.02890224773218739,-0.1217978432135124,-0.9877461864577401,0.09320599928448434,-0.07980074733495712,-0.2352229803800583,-0.9686598777770996,0,0,0,-1,-1,15835.42985475,unknown,2,2021-04-05 21:43:29.137 -0400,2021-04-05 19:23:45.401 -0400,749,1.41497,0,0,554.4654,0,0,2021-04-05 21:43:29.136 -0400,639366252.8970207,0,-2.42,98.19553,1,0.65
2021-04-05 21:44:14.072 -0400,0,0,0,0,0,0,0,0,0,15880.36752104167,-0.0820159912109375,-0.236358642578125,-0.972442626953125,15880.34741004167,-2.944600644585038,-0.08225229488762334,0.2381062061272964,0.06653538346290588,-0.008025811053812504,0.003701768349856138,0.01711269468069077,0.01569367945194244,-0.02240478992462158,XArbitraryZVertical,-0.028955874322335,-0.1221109192206924,-0.9877536994923436,0.09269858320862634,-0.07984156161546707,-0.2358626872301102,-0.9685009717941284,0,0,0,-1,-1,15835.42985475,unknown,2,2021-04-05 21:43:29.137 -0400,2021-04-05 19:23:45.401 -0400,749,1.41497,0,0,554.4654,0,0,2021-04-05 21:43:29.136 -0400,639366252.8970207,0,-2.42,98.19553,1,0.65
2021-04-05 21:44:14.108 -0400,0,0,0,0,0,0,0,0,0,15880.40270804167,-0.088348388671875,-0.2415313720703125,-0.9681549072265625,15880.37756204167,-2.943784639555328,-0.08321156717958472,0.2410418597143842,0.05574944987893105,0.00277230329811573,0.01081606931984425,-0.001303300261497498,0.002355903387069702,-0.004712879657745361,XArbitraryZVertical,-0.02922875045484662,-0.1236155610425941,-0.9875335215627561,0.09296540920748882,-0.08071268349885941,-0.2387145012617111,-0.9677297472953796,0,0,0,-1,-1,15835.42985475,unknown,2,2021-04-05 21:43:29.137 -0400,2021-04-05 19:23:45.401 -0400,749,1.41497,0,0,554.4654,0,0,2021-04-05 21:43:29.136 -0400,639366252.8970207,0,-2.42,98.19553,1,0.65
2021-04-05 21:44:14.143 -0400,0,0,0,0,0,0,0,0,0,15880.43792504167,-0.088043212890625,-0.2442169189453125,-0.9766082763671875,15880.43792504167,-2.942167845034309,-0.08154903565296673,0.2433566569704086,0.08110401779413223,0.01982339657843113,0.02789054438471794,-0.00909154862165451,0.001475080847740173,-0.008276700973510742,XArbitraryZVertical,-0.02818801581755701,-0.1247028692681211,-0.9873475094395984,0.09380591460186748,-0.07905846834182739,-0.2409617304801941,-0.9673092365264893,0,0,0,-1,-1,15835.42985475,unknown,2,2021-04-05 21:43:29.137 -0400,2021-04-05 19:23:45.401 -0400,749,1.41497,0,0,554.4654,0,0,2021-04-05 21:43:29.136 -0400,639366252.8970207,0,-2.42,98.19553,1,0.65
2021-04-05 21:44:14.214 -0400,0,0,0,0,0,0,0,0,0,15880.47311204167,-0.08721923828125,-0.2413177490234375,-0.9824981689453125,15880.46807704167,-2.94177371321108,-0.08190010911237081,0.2447299486674861,0.0190582238137722,-0.02394725196063519,-0.009679468348622322,-0.005620531737804413,-0.002471849322319031,-0.01278561353683472,XArbitraryZVertical,-0.02826542753306589,-0.1254021555805926,-0.987243709489247,0.09394249265406064,-0.07937091588973999,-0.2422943264245987,-0.9669507145881653,0,0,0,-1,-1,15835.42985475,unknown,2,2021-04-05 21:43:29.137 -0400,2021-04-05 19:23:45.401 -0400,749,1.41497,0,0,554.4654,0,0,2021-04-05 21:43:29.136 -0400,639366252.8970207,0,-2.42,98.19553,1,0.65
2021-04-05 21:44:14.219 -0400,0,0,0,0,0,0,0,0,0,15880.50829904167,-0.088104248046875,-0.2396087646484375,-0.954437255859375,15880.49825904167,-2.942133866881579,-0.08244336917658196,0.245526264007369,0.04306153953075409,-0.004631428048014641,-0.02677573077380657,-0.01034491509199142,0.003610730171203613,-0.006399154663085938,XArbitraryZVertical,-0.02851487085489212,-0.1258152032776341,-0.9872061051626322,0.09370959612995979,-0.07988028973340988,-0.2430668324232101,-0.9667148590087891,0,0,0,-1,-1,15835.42985475,unknown,2,2021-04-05 21:43:29.137 -0400,2021-04-05 19:23:45.401 -0400,749,1.41497,0,0,554.4654,0,0,2021-04-05 21:43:29.136 -0400,639366252.8970207,0,-2.42,98.19553,1,0.65
2021-04-05 21:44:14.248 -0400,0,0,0,0,0,0,0,0,0,15880.54351604167,-0.0823974609375,-0.237945556640625,-0.9399261474609375,15880.52844004167,-2.943115677434945,-0.08294775435038564,0.2469152279904695,0.04890041798353195,-0.01502875704318285,-0.04153701663017273,-0.006711550056934357,0.005369782447814941,0.01618754863739014,XArbitraryZVertical,-0.02875386034994333,-0.1265095873030024,-0.9871628245425579,0.09315636318603619,-0.08033982664346695,-0.2444139122962952,-0.9663370847702026,0,0,0,-1,-1,15835.42985475,unknown,2,2021-04-05 21:43:29.137 -0400,2021-04-05 19:23:45.401 -0400,749,1.41497,0,0,554.4654,0,0,2021-04-05 21:43:29.136 -0400,639366252.8970207,0,-2.42,98.19553,1,0.65
2021-04-05 21:44:14.284 -0400,0,0,0,0,0,0,0,0,0,15880.57870304167,-0.0803985595703125,-0.230316162109375,-0.95611572265625,15880.55859204167,-2.944386801817155,-0.08297661066555541,0.24769401115257,-0.001062712632119656,-0.003143950365483761,-0.04491009190678596,-0.002121828496456146,0.00816953182220459,0.02621859312057495,XArbitraryZVertical,-0.02880851260113218,-0.1268766350820489,-0.9871752520836143,0.09250644617485314,-0.08035191148519516,-0.245168998837471,-0.9661448001861572,0,0,0,-1,-1,15835.42985475,unknown,2,2021-04-05 21:43:29.137 -0400,2021-04-05 19:23:45.401 -0400,749,1.41497,0,0,554.4654,0,0,2021-04-05 21:43:29.136 -0400,639366252.8970207,0,-2.42,98.19553,1,0.65
2021-04-05 21:44:14.319 -0400,0,0,0,0,0,0,0,0,0,15880.61392004167,-0.070068359375,-0.2221832275390625,-0.9678192138671875,15880.58877404167,-2.945988197797533,-0.08272211133565507,0.2471215790777955,-0.01968570984899998,0.01015532296150923,-0.06044890359044075,-0.0002809390425682068,0.01429788768291473,0.01018917560577393,XArbitraryZVertical,-0.0288136292378914,-0.1265595669888145,-0.9872866578634735,0.091747266047304,-0.0801176130771637,-0.2446140050888062,-0.9663048982620239,0,0,0,-1,-1,15835.42985475,unknown,2,2021-04-05 21:43:29.137 -0400,2021-04-05 19:23:45.401 -0400,749,1.41497,0,0,554.4654,0,0,2021-04-05 21:43:29.136 -0400,639366252.8970207,0,-2.42,98.19553,1,0.65
2021-04-05 21:44:14.355 -0400,0,0,0,0,0,0,0,0,0,15880.64910704167,-0.078369140625,-0.23919677734375,-0.971710205078125,15880.61892504167,-2.947585751760187,-0.08216239405840738,0.2475845600765014,0.04433118179440498,-0.003590009175240993,-0.03256547451019287,0.006203196942806244,0.02046884596347809,0.0001569390296936035,XArbitraryZVertical,-0.02861499704014389,-0.1267393950554105,-0.9873401265114673,0.0909818481633714,-0.07956743985414505,-0.2450628876686096,-0.9662365913391113,0,0,0,-1,-1,15835.42985475,unknown,2,2021-04-05 21:43:29.137 -0400,2021-04-05 19:23:45.401 -0400,749,1.41497,0,0,554.4654,0,0,2021-04-05 21:43:29.136 -0400,639366252.8970207,0,-2.42,98.19553,1,0.65
2021-04-05 21:44:14.389 -0400,0,0,0,0,0,0,0,0,0,15880.68429404167,-0.0928802490234375,-0.2510223388671875,-0.9680938720703125,15880.67928904167,-2.948700586078106,-0.08170475909347651,0.2485849604506958,0.01484340615570545,0.03344058990478516,-0.02301303297281265,-0.01083008944988251,0.003280654549598694,0.002038836479187012,XArbitraryZVertical,-0.02840943038025515,-0.1271961180986975,-0.9873376763821281,0.09043435023992018,-0.0791051983833313,-0.2460326552391052,-0.966028094291687,0,0,0,-1,-1,15835.42985475,unknown,2,2021-04-05 21:43:29.137 -0400,2021-04-05 19:23:45.401 -0400,749,1.41497,0,0,554.4654,0,0,2021-04-05 21:43:29.136 -0400,639366252.8970207,0,-2.42,98.19553,1,0.65
2021-04-05 21:44:14.425 -0400,0,0,0,0,0,0,0,0,0,15880.71951104167,-0.0872039794921875,-0.248870849609375,-0.979827880859375,15880.70944004167,-2.949907465889654,-0.08019458898019004,0.2484931868686769,0.006490789353847504,0.03492452204227448,-0.04850998520851135,-0.01379786431789398,-0.004056215286254883,-0.00470203161239624,XArbitraryZVertical,-0.02774518682103531,-0.1270658107624586,-0.9874188034289235,0.08993690848889734,-0.07764805108308792,-0.2459437102079391,-0.9661689400672913,0,0,0,-1,-1,15835.42985475,unknown,2,2021-04-05 21:43:29.137 -0400,2021-04-05 19:23:45.401 -0400,749,1.41497,0,0,554.4654,0,0,2021-04-05 21:43:29.136 -0400,639366252.8970207,0,-2.42,98.19553,1,0.65
2021-04-05 21:44:14.459 -0400,0,0,0,0,0,0,0,0,0,15880.75469804167,-0.089935302734375,-0.2553253173828125,-0.9621734619140625,15880.73962204167,-2.951153424530374,-0.07879887245738987,0.2484528192970488,0.01449592877179384,0.02557051926851273,-0.02640094049274921,-0.008187644183635712,-0.003637596964836121,-0.010337233543396,XArbitraryZVertical,-0.02713722082123756,-0.1269662316161215,-0.9874961689457615,0.08941139381379391,-0.07630025595426559,-0.2459045797586441,-0.966286301612854,0,0,0,-1,-1,15835.42985475,unknown,2,2021-04-05 21:43:29.137 -0400,2021-04-05 19:23:45.401 -0400,749,1.41497,0,0,554.4654,0,0,2021-04-05 21:43:29.136 -0400,639366252.8970207,0,-2.42,98.19553,1,0.65
2021-04-05 21:44:14.495 -0400,0,0,0,0,0,0,0,0,0,15880.78991504167,-0.0951385498046875,-0.264739990234375,-0.9525146484375,15880.76980404167,-2.95166120823156,-0.07900625974384891,0.2489615784997199,0.01345637626945972,-0.02454554289579391,-0.02708379179239273,-0.01519928127527237,-0.01263545453548431,0.006932318210601807,XArbitraryZVertical,-0.02724669628988259,-0.1272195411576858,-0.9874856150580829,0.08913460716095033,-0.07649076730012894,-0.2463976889848709,-0.9661456346511841,0,0,0,-1,-1,15835.42985475,unknown,2,2021-04-05 21:43:29.137 -0400,2021-04-05 19:23:45.401 -0400,749,1.41497,0,0,554.4654,0,0,2021-04-05 21:43:29.136 -0400,639366252.8970207,0,-2.42,98.19553,1,0.65
2021-04-05 21:44:14.529 -0400,0,0,0,0,0,0,0,0,0,15880.82510204167,-0.0860748291015625,-0.257843017578125,-0.973480224609375,15880.79995504167,-2.952814658308263,-0.08020428768477006,0.2490498485470485,-0.01372463349252939,-0.03505460172891617,-0.05254596099257469,-0.01749209314584732,-0.01825667917728424,0.01351696252822876,XArbitraryZVertical,-0.02790726285230898,-0.1273003774771284,-0.987515030354812,0.08848660852202182,-0.07764644175767899,-0.2464832365512848,-0.9660316109657288,0,0,0,-1,-1,15835.42985475,unknown,2,2021-04-05 21:43:29.137 -0400,2021-04-05 19:23:45.401 -0400,749,1.41497,0,0,554.4654,0,0,2021-04-05 21:43:29.136 -0400,639366252.8970207,0,-2.42,98.19553,1,0.65
2021-04-05 21:44:14.566 -0400,0,0,0,0,0,0,0,0,0,15880.86028904167,-0.07269287109375,-0.24871826171875,-0.983184814453125,15880.83013704167,-2.954651735421909,-0.08125879047776835,0.2488408610931963,0.001196269877254963,-0.05078478902578354,-0.07146739959716797,-0.008092202246189117,-0.01542274653911591,-0.003512442111968994,XArbitraryZVertical,-0.02855508310804042,-0.1272177509756087,-0.9875934862977812,0.08751778407748205,-0.07866925746202469,-0.2462806850671768,-0.966000497341156,0,0,0,-1,-1,15835.42985475,unknown,2,2021-04-05 21:43:29.137 -0400,2021-04-05 19:23:45.401 -0400,749,1.41497,0,0,554.4654,0,0,2021-04-05 21:43:29.136 -0400,639366252.8970207,0,-2.42,98.19553,1,0.65
2021-04-05 21:44:14.600 -0400,0,0,0,0,0,0,0,0,0,15880.89550604167,-0.0739288330078125,-0.2469940185546875,-0.9908447265625,15880.89047004167,-2.957638327275091,-0.08515781022732399,0.2517318539236714,0.02878037095069885,-0.07938570529222488,-0.02271292731165886,0.0131603479385376,0.002408087253570557,-0.02651262283325195,XArbitraryZVertical,-0.03053129001559286,-0.1287685980879695,-0.9874912687314121,0.08571747903836437,-0.0823742002248764,-0.2490815967321396,-0.964972972869873,0,0,0,-1,-1,15835.42985475,unknown,2,2021-04-05 21:43:29.137 -0400,2021-04-05 19:23:45.401 -0400,749,1.41497,0,0,554.4654,0,0,2021-04-05 21:43:29.136 -0400,639366252.8970207,0,-2.42,98.19553,1,0.65
2021-04-05 21:44:14.635 -0400,0,0,0,0,0,0,0,0,0,15880.93069404167,-0.0762481689453125,-0.24310302734375,-0.9870758056640625,15880.92065204167,-2.958111171671263,-0.08713269087803206,0.2532187942041166,0.05644873902201653,-0.05816567689180374,-0.01056097447872162,0.00851806253194809,3.316998481750488e-05,-0.02388864755630493,XArbitraryZVertical,-0.0314652646503611,-0.12957911139391,-0.9873906237027419,0.08531625856996509,-0.08424742519855499,-0.2505213916301727,-0.9644383788108826,0,0,0,-1,-1,15835.42985475,unknown,2,2021-04-05 21:43:29.137 -0400,2021-04-05 19:23:45.401 -0400,749,1.41497,0,0,554.4654,0,0,2021-04-05 21:43:29.136 -0400,639366252.8970207,0,-2.42,98.19553,1,0.65
2021-04-05 21:44:14.729 -0400,0,0,0,0,0,0,0,0,0,15880.96591104167,-0.08404541015625,-0.2515716552734375,-0.975555419921875,15880.95080504167,-2.957855051624583,-0.08846069660591874,0.2555562906694859,0.09853836894035339,-0.04142582416534424,0.01584052294492722,0.00890757143497467,0.007437646389007568,-0.02239006757736206,XArbitraryZVertical,-0.03199150550808608,-0.130792526410895,-0.9872158573586175,0.08529202467382323,-0.08547616004943848,-0.2527836859226227,-0.9637396931648254,0,0,0,-1,-1,15835.42985475,unknown,2,2021-04-05 21:43:29.137 -0400,2021-04-05 19:23:45.401 -0400,749,1.41497,0,0,554.4654,0,0,2021-04-05 21:43:29.136 -0400,639366252.8970207,0,-2.42,98.19553,1,0.65
2021-04-05 21:44:14.734 -0400,0,0,0,0,0,0,0,0,0,15881.00109804167,-0.0885772705078125,-0.2506866455078125,-0.966461181640625,15880.98098704167,-2.957365755134216,-0.08900268149858963,0.2578112158475421,0.07959812879562378,-0.02089373394846916,0.008239943534135818,-0.0006155073642730713,0.001699388027191162,-0.01104384660720825,XArbitraryZVertical,-0.03211788356181866,-0.1319352824160896,-0.9870472687054713,0.08543529330626733,-0.08594759553670883,-0.2549647092819214,-0.9631230235099792,0,0,0,-1,-1,15835.42985475,unknown,2,2021-04-05 21:43:29.137 -0400,2021-04-05 19:23:45.401 -0400,749,1.41497,0,0,554.4654,0,0,2021-04-05 21:43:29.136 -0400,639366252.8970207,0,-2.42,98.19553,1,0.65
2021-04-05 21:44:14.740 -0400,0,0,0,0,0,0,0,0,0,15881.03628404167,-0.0847015380859375,-0.2411956787109375,-0.9523773193359375,15881.01113804167,-2.957349655278513,-0.0892802162509065,0.2596522818016117,0.07514609396457672,-0.02835562452673912,-0.01765771582722664,-0.002404369413852692,0.006057918071746826,-0.003831207752227783,XArbitraryZVertical,-0.03216462336003001,-0.1328549713936749,-0.9869277472362521,0.08537345854589982,-0.08617289364337921,-0.2567445039749146,-0.9626299738883972,0,0,0,-1,-1,15835.42985475,unknown,2,2021-04-05 21:43:29.137 -0400,2021-04-05 19:23:45.401 -0400,749,1.41497,0,0,554.4654,0,0,2021-04-05 21:43:29.136 -0400,639366252.8970207,0,-2.42,98.19553,1,0.65
2021-04-05 21:44:14.777 -0400,0,0,0,0,0,0,0,0,0,15881.07150204167,-0.088775634765625,-0.2313079833984375,-0.9615936279296875,15881.07150204167,-2.958488814095344,-0.09152471065119012,0.2616647721357828,-0.005333546083420515,-0.06890337914228439,-0.03223109990358353,-0.0007186010479927063,0.02541273832321167,0.007541477680206299,XArbitraryZVertical,-0.03325082415478577,-0.1339236720179109,-0.9868134876901079,0.08460478601018284,-0.088285893201828,-0.2586890161037445,-0.9619176387786865,0,0,0,-1,-1,15835.42985475,unknown,2,2021-04-05 21:43:29.137 -0400,2021-04-05 19:23:45.401 -0400,749,1.41497,0,0,554.4654,0,0,2021-04-05 21:43:29.136 -0400,639366252.8970207,0,-2.42,98.19553,1,0.65
2021-04-05 21:44:14.811 -0400,0,0,0,0,0,0,0,0,0,15881.10668904167,-0.095855712890625,-0.2360992431640625,-0.9557037353515625,15881.10165304167,-2.959252262341018,-0.0930338914178248,0.2613963372630824,0.02965947985649109,-0.02925089746713638,-0.01177612505853176,-0.004845276474952698,0.02287983894348145,-0.005814194679260254,XArbitraryZVertical,-0.0340595101469185,-0.1338421858173628,-0.9868371621506764,0.08413477561693213,-0.08974394202232361,-0.2584297060966492,-0.9618524312973022,0,0,0,-1,-1,15835.42985475,unknown,2,2021-04-05 21:43:29.137 -0400,2021-04-05 19:23:45.401 -0400,749,1.41497,0,0,554.4654,0,0,2021-04-05 21:43:29.136 -0400,639366252.8970207,0,-2.42,98.19553,1,0.65
2021-04-05 21:44:14.847 -0400,0,0,0,0,0,0,0,0,0,15881.14187504167,-0.1074981689453125,-0.260406494140625,-0.9508209228515625,15881.13183504167,-2.959254605873703,-0.0932554631863183,0.2622568934547453,0.03436222299933434,-0.002436389215290546,-0.008212748914957047,-0.01078693568706512,0.01124465465545654,0.01732057332992554,XArbitraryZVertical,-0.03412758864214523,-0.1342755853920727,-0.9867794554900869,0.08409389261521481,-0.08993632346391678,-0.2592609226703644,-0.961610734462738,0,0,0,-1,-1,15835.42985475,unknown,2,2021-04-05 21:43:29.137 -0400,2021-04-05 19:23:45.401 -0400,749,1.41497,0,0,554.4654,0,0,2021-04-05 21:43:29.136 -0400,639366252.8970207,0,-2.42,98.19553,1,0.65
2021-04-05 21:44:14.881 -0400,0,0,0,0,0,0,0,0,0,15881.17709304167,-0.098175048828125,-0.263458251953125,-0.987060546875,15881.16201704167,-2.960414077630323,-0.09318383488298251,0.2615955948396097,-0.04001973196864128,-0.009905429556965828,-0.06987857818603516,-0.01895755529403687,-0.002379328012466431,0.006740033626556396,XArbitraryZVertical,-0.03420171274025841,-0.133926851406274,-0.9868708228945774,0.08354571753338788,-0.08988337218761444,-0.2586221992969513,-0.9617877006530762,0,0,0,-1,-1,15835.42985475,unknown,2,2021-04-05 21:43:29.137 -0400,2021-04-05 19:23:45.401 -0400,749,1.41497,0,0,554.4654,0,0,2021-04-05 21:43:29.136 -0400,639366252.8970207,0,-2.42,98.19553,1,0.65
2021-04-05 21:44:14.917 -0400,0,0,0,0,0,0,0,0,0,15881.21227904167,-0.0850982666015625,-0.261932373046875,-0.9910736083984375,15881.19216804167,-2.963149347720661,-0.09289169315520313,0.26004059052039,-0.006436805240809917,-0.008867165073752403,-0.09100054204463959,-0.00646025687456131,-0.005071938037872314,-0.02689206600189209,XArbitraryZVertical,-0.03431396762831336,-0.1331013609078962,-0.9870865352796387,0.08226015230642117,-0.08963958919048309,-0.2571197748184204,-0.9622131586074829,0,0,0,-1,-1,15835.42985475,unknown,2,2021-04-05 21:43:29.137 -0400,2021-04-05 19:23:45.401 -0400,749,1.41497,0,0,554.4654,0,0,2021-04-05 21:43:29.136 -0400,639366252.8970207,0,-2.42,98.19553,1,0.65
2021-04-05 21:44:14.952 -0400,0,0,0,0,0,0,0,0,0,15881.24749704167,-0.0901947021484375,-0.2628326416015625,-0.9804840087890625,15881.22235004167,-2.965909387927459,-0.09330936271011164,0.2606077471078216,0.02416221611201763,-0.03309891745448112,-0.09419029206037521,0.004929602146148682,-0.004264473915100098,-0.02904331684112549,XArbitraryZVertical,-0.03467742686526826,-0.1333504100711776,-0.9871564270316129,0.08085380191078351,-0.09002786129713058,-0.2576678395271301,-0.962030291557312,0,0,0,-1,-1,15835.42985475,unknown,2,2021-04-05 21:43:29.137 -0400,2021-04-05 19:23:45.401 -0400,749,1.41497,0,0,554.4654,0,0,2021-04-05 21:43:29.136 -0400,639366252.8970207,0,-2.42,98.19553,1,0.65
2021-04-05 21:44:14.988 -0400,0,0,0,0,0,0,0,0,0,15881.28268304167,-0.0830535888671875,-0.2518310546875,-0.969024658203125,15881.25250204167,-2.968894670311666,-0.09389408587041297,0.2612642905144354,0.0008507911115884781,-0.02742775902152061,-0.1018056273460388,1.358985900878906e-05,-0.004179477691650391,-0.01615744829177856,XArbitraryZVertical,-0.03513503473887709,-0.13364543752848,-0.9872246211710692,0.07932237900751546,-0.0905744880437851,-0.2583021521568298,-0.9618088603019714,0,0,0,-1,-1,15835.42985475,unknown,2,2021-04-05 21:43:29.137 -0400,2021-04-05 19:23:45.401 -0400,749,1.41497,0,0,554.4654,0,0,2021-04-05 21:43:29.136 -0400,639366252.8970207,0,-2.42,98.19553,1,0.65
2021-04-05 21:44:15.022 -0400,0,0,0,0,0,0,0,0,0,15881.31787004167,-0.0807952880859375,-0.2459869384765625,-0.94952392578125,15881.31286504167,-2.973091805519589,-0.09269263117054448,0.2643788495532473,0.06455010920763016,7.099751383066177e-05,-0.04481746256351471,0.00673288106918335,0.01074525713920593,0.004186809062957764,XArbitraryZVertical,-0.0346830681910102,-0.1350609131135137,-0.9872128788812127,0.07724223913351962,-0.08934395760297775,-0.2613097429275513,-0.9611112475395203,0,0,0,-1,-1,15835.42985475,unknown,2,2021-04-05 21:43:29.137 -0400,2021-04-05 19:23:45.401 -0400,749,1.41497,0,0,554.4654,0,0,2021-04-05 21:43:29.136 -0400,639366252.8970207,0,-2.42,98.19553,1,0.65
2021-04-05 21:44:15.058 -0400,0,0,0,0,0,0,0,0,0,15881.35308704167,-0.08245849609375,-0.2476348876953125,-0.9503021240234375,15881.34301704167,-2.97426939570831,-0.09290655054941428,0.2657217729208679,0.02657380886375904,-0.0328809916973114,-0.03654758632183075,0.01078157126903534,0.01761072874069214,0.01486480236053467,XArbitraryZVertical,-0.03480851368075656,-0.1357108432114577,-0.9871688048976245,0.07660833147929448,-0.08951692283153534,-0.2626057863235474,-0.9607418775558472,0,0,0,-1,-1,15835.42985475,unknown,2,2021-04-05 21:43:29.137 -0400,2021-04-05 19:23:45.401 -0400,749,1.41497,0,0,554.4654,0,0,2021-04-05 21:43:29.136 -0400,639366252.8970207,0,-2.42,98.19553,1,0.65
2021-04-05 21:44:15.093 -0400,0,0,0,0,0,0,0,0,0,15881.38827404167,-0.085174560546875,-0.258056640625,-0.9442138671875,15881.37319904167,-2.975118933799212,-0.09343219098272668,0.2663276712743881,0.04382620006799698,-0.02274375036358833,-0.02247455716133118,0.006037943065166473,0.01445689797401428,0.01049333810806274,XArbitraryZVertical,-0.03509880588195892,-0.1360148199379365,-0.9871531993801197,0.07613602039864936,-0.09000705182552338,-0.263190358877182,-0.9605360627174377,0,0,0,-1,-1,15835.42985475,unknown,2,2021-04-05 21:43:29.137 -0400,2021-04-05 19:23:45.401 -0400,749,1.41497,0,0,554.4654,0,0,2021-04-05 21:43:29.136 -0400,639366252.8970207,0,-2.42,98.19553,1,0.65
2021-04-05 21:44:15.128 -0400,0,0,0,0,0,0,0,0,0,15881.42349104167,-0.0861663818359375,-0.2646636962890625,-0.9514923095703125,15881.40338004167,-2.975903998253456,-0.09362212450256485,0.2675469393370251,0.04114031046628952,-0.01704595796763897,-0.03713539242744446,0.004679694771766663,0.005012869834899902,0.01749551296234131,XArbitraryZVertical,-0.03519221980081234,-0.1366093995669115,-0.9871011839180146,0.07570070979580959,-0.09015942364931107,-0.2643664479255676,-0.9601987600326538,0,0,0,-1,-1,15835.42985475,unknown,2,2021-04-05 21:43:29.137 -0400,2021-04-05 19:23:45.401 -0400,749,1.41497,0,0,554.4654,0,0,2021-04-05 21:43:29.136 -0400,639366252.8970207,0,-2.42,98.19553,1,0.65
2021-04-05 21:44:15.192 -0400,0,0,0,0,0,0,0,0,0,15881.45867804167,-0.072998046875,-0.259735107421875,-0.9661102294921875,15881.43353204167,-2.977523765078933,-0.0930409093450011,0.2674164055043994,-0.02185294590890408,0.007310288026928902,-0.06286352872848511,0.003438159823417664,-0.000423043966293335,0.008793056011199951,XArbitraryZVertical,-0.03502166462882155,-0.1364947146359851,-0.9871808211433378,0.0749446512914111,-0.08960452675819397,-0.264240562915802,-0.9602853655815125,0,0,0,-1,-1,15835.42985475,unknown,2,2021-04-05 21:43:29.137 -0400,2021-04-05 19:23:45.401 -0400,749,1.41497,0,0,554.4654,0,0,2021-04-05 21:43:29.136 -0400,639366252.8970207,0,-2.42,98.19553,1,0.65
2021-04-05 21:44:15.235 -0400,0,0,0,0,0,0,0,0,0,15881.49386504167,-0.0717315673828125,-0.26043701171875,-0.973052978515625,15881.46371404167,-2.979523457944003,-0.09199305074176671,0.2669476161363794,0.007037524599581957,0.01681246794760227,-0.05761551856994629,0.01301757246255875,0.002374887466430664,-0.005272567272186279,XArbitraryZVertical,-0.03466107972220103,-0.1361896811430768,-0.9873037573762421,0.07404223854328289,-0.08860960602760315,-0.2637884020805359,-0.9605019688606262,0,0,0,-1,-1,15835.42985475,unknown,2,2021-04-05 21:43:29.137 -0400,2021-04-05 19:23:45.401 -0400,749,1.41497,0,0,554.4654,0,0,2021-04-05 21:43:29.136 -0400,639366252.8970207,0,-2.42,98.19553,1,0.65
2021-04-05 21:44:15.240 -0400,0,0,0,0,0,0,0,0,0,15881.52908204167,-0.0710296630859375,-0.271453857421875,-0.9727935791015625,15881.52404704167,-2.981902322049395,-0.09005201976854112,0.2679844897776232,0.03655744343996048,0.06783262640237808,-0.008061314933001995,0.008030861616134644,0.00210842490196228,-0.01158565282821655,XArbitraryZVertical,-0.03382070483508234,-0.1365889716815671,-0.9873575136156041,0.07297140636608894,-0.08672042936086655,-0.264788419008255,-0.9603992104530334,0,0,0,-1,-1,15835.42985475,unknown,2,2021-04-05 21:43:29.137 -0400,2021-04-05 19:23:45.401 -0400,749,1.41497,0,0,554.4654,0,0,2021-04-05 21:43:29.136 -0400,639366252.8970207,0,-2.42,98.19553,1,0.65
2021-04-05 21:44:15.269 -0400,0,0,0,0,0,0,0,0,0,15881.56426904167,-0.0753936767578125,-0.2721099853515625,-0.965606689453125,15881.55422904167,-2.982242683385489,-0.08810147059059237,0.2694953988487712,0.05045054852962494,0.05707239359617233,-0.003590216860175133,0.01233242452144623,-0.003438681364059448,-0.01018524169921875,XArbitraryZVertical,-0.03281700784143635,-0.1372573401518792,-0.9873042693082533,0.0728956312387493,-0.08481166511774063,-0.2662450969219208,-0.9601669311523438,0,0,0,-1,-1,15835.42985475,unknown,2,2021-04-05 21:43:29.137 -0400,2021-04-05 19:23:45.401 -0400,749,1.41497,0,0,554.4654,0,0,2021-04-05 21:43:29.136 -0400,639366252.8970207,0,-2.42,98.19553,1,0.65
2021-04-05 21:44:15.304 -0400,0,0,0,0,0,0,0,0,0,15881.59948604167,-0.0721588134765625,-0.27410888671875,-0.969085693359375,15881.58438004167,-2.982255210408383,-0.08598654696872196,0.2702960281081598,0.01932632736861706,0.04475630074739456,-0.002064641332253814,0.007567159831523895,-0.002697587013244629,-0.009350955486297607,XArbitraryZVertical,-0.03173996509013212,-0.1375748477901994,-0.9872865937171736,0.07301327248002289,-0.0827624648809433,-0.267016738653183,-0.9601314663887024,0,0,0,-1,-1,15835.42985475,unknown,2,2021-04-05 21:43:29.137 -0400,2021-04-05 19:23:45.401 -0400,749,1.41497,0,0,554.4654,0,0,2021-04-05 21:43:29.136 -0400,639366252.8970207,0,-2.42,98.19553,1,0.65
2021-04-05 21:44:15.339 -0400,0,0,0,0,0,0,0,0,0,15881.63467304167,-0.0794677734375,-0.269561767578125,-0.9410400390625,15881.61456204167,-2.982355204957826,-0.08541935874297708,0.2705122153060504,0.01927581429481506,-0.02943864837288857,-0.001147448550909758,0.01244977861642838,-0.007173657417297363,-0.005852162837982178,XArbitraryZVertical,-0.03145771917746602,-0.1376591785886185,-0.9872850999213248,0.07299721681246363,-0.08221294730901718,-0.267225056886673,-0.9601207375526428,0,0,0,-1,-1,15835.42985475,unknown,2,2021-04-05 21:43:29.137 -0400,2021-04-05 19:23:45.401 -0400,749,1.41497,0,0,554.4654,0,0,2021-04-05 21:43:29.136 -0400,639366252.8970207,0,-2.42,98.19553,1,0.65
2021-04-05 21:44:15.374 -0400,0,0,0,0,0,0,0,0,0,15881.66986004167,-0.0846099853515625,-0.2660369873046875,-0.9463348388671875,15881.64471304167,-2.98181961923443,-0.0856811510558301,0.2710940809224634,-0.006496526300907135,-0.01008658576756716,0.008520958013832569,0.002983212471008301,-0.001775979995727539,0.01890403032302856,XArbitraryZVertical,-0.03152542548325789,-0.1379641451371504,-0.9872232236605044,0.07322813195436909,-0.0824509784579277,-0.2677857279777527,-0.9599440693855286,0,0,0,-1,-1,15835.42985475,unknown,2,2021-04-05 21:43:29.137 -0400,2021-04-05 19:23:45.401 -0400,749,1.41497,0,0,554.4654,0,0,2021-04-05 21:43:29.136 -0400,639366252.8970207,0,-2.42,98.19553,1,0.65
2021-04-05 21:44:15.410 -0400,0,0,0,0,0,0,0,0,0,15881.70507704167,-0.075653076171875,-0.2569580078125,-0.96270751953125,15881.67489504167,-2.982368289085982,-0.08596987553143293,0.2696350716970929,-0.06787152588367462,-0.01898213848471642,-0.01395357493311167,-0.002565540373325348,-0.001625567674636841,0.0152553915977478,XArbitraryZVertical,-0.03176743830311118,-0.1372464645902095,-0.9873341497032451,0.0729761576821987,-0.08276159316301346,-0.266379714012146,-0.9603084921836853,0,0,0,-1,-1,15835.42985475,unknown,2,2021-04-05 21:43:29.137 -0400,2021-04-05 19:23:45.401 -0400,749,1.41497,0,0,554.4654,0,0,2021-04-05 21:43:29.136 -0400,639366252.8970207,0,-2.42,98.19553,1,0.65
2021-04-05 21:44:15.445 -0400,0,0,0,0,0,0,0,0,0,15881.74026404167,-0.0758209228515625,-0.25885009765625,-0.9569244384765625,15881.73522904167,-2.981190974100451,-0.08658639410903493,0.2698815549777712,0.02210889756679535,0.00649302639067173,0.03842025250196457,0.006748832762241364,0.007095873355865479,-0.001081347465515137,XArbitraryZVertical,-0.0319804952039937,-0.1374093748335804,-0.9872650707817104,0.07350842067114818,-0.08334794640541077,-0.2666172683238983,-0.9601918458938599,0,0,0,-1,-1,15835.42985475,unknown,2,2021-04-05 21:43:29.137 -0400,2021-04-05 19:23:45.401 -0400,749,1.41497,0,0,554.4654,0,0,2021-04-05 21:43:29.136 -0400,639366252.8970207,0,-2.42,98.19553,1,0.65
2021-04-05 21:44:15.480 -0400,0,0,0,0,0,0,0,0,0,15881.77545104167,-0.09356689453125,-0.2665863037109375,-0.9671173095703125,15881.76541004167,-2.979779856550237,-0.0861766397439552,0.2698301671009429,-0.02565278857946396,0.04095678776502609,0.04054921492934227,-3.687292337417603e-05,0.007687181234359741,0.004596829414367676,XArbitraryZVertical,-0.0316834810962424,-0.1373913529413564,-0.9872228583975371,0.07423451179318025,-0.08295567333698273,-0.2665677666664124,-0.9602395296096802,0,0,0,-1,-1,15835.42985475,unknown,2,2021-04-05 21:43:29.137 -0400,2021-04-05 19:23:45.401 -0400,749,1.41497,0,0,554.4654,0,0,2021-04-05 21:43:29.136 -0400,639366255.4723166,0,-2.44,98.19574,1,0.65
2021-04-05 21:44:15.516 -0400,0,0,0,0,0,0,0,0,0,15881.81066804167,-0.096466064453125,-0.2651519775390625,-0.9831390380859375,15881.79559204167,-2.978973718541147,-0.08489574219946855,0.2688365779872474,-0.02323738858103752,0.04965235665440559,0.005393357947468758,-0.01610655337572098,0.002868980169296265,-0.007287085056304932,XArbitraryZVertical,-0.03103861347685822,-0.1368662795897334,-0.9872776929016429,0.07474665957258615,-0.08174805343151093,-0.2656099796295166,-0.9606084227561951,0,0,0,-1,-1,15835.42985475,unknown,2,2021-04-05 21:43:29.137 -0400,2021-04-05 19:23:45.401 -0400,749,1.41497,0,0,554.4654,0,0,2021-04-05 21:43:29.136 -0400,639366255.4723166,0,-2.44,98.19574,1,0.65
2021-04-05 21:44:15.551 -0400,0,0,0,0,0,0,0,0,0,15881.84585504167,-0.0980682373046875,-0.263641357421875,-0.96026611328125,15881.82574404167,-2.979052458648109,-0.08346864712983366,0.2680565274878154,-0.005228683818131685,0.04056190326809883,0.003150294069200754,-0.01733819395303726,0.002208411693572998,-0.02249866724014282,XArbitraryZVertical,-0.03037304175167625,-0.1364269820717141,-0.9873532301124379,0.07482574504537932,-0.08039434254169464,-0.2648578584194183,-0.9609302878379822,0,0,0,-1,-1,15835.42985475,unknown,2,2021-04-05 21:43:29.137 -0400,2021-04-05 19:23:45.401 -0400,749,1.41497,0,0,554.4654,0,0,2021-04-05 21:43:29.136 -0400,639366255.4723166,0,-2.44,98.19574,1,0.65
2021-04-05 21:44:15.586 -0400,0,0,0,0,0,0,0,0,0,15881.88107204167,-0.097930908203125,-0.27349853515625,-0.9330291748046875,15881.85592604167,-2.978754079880493,-0.08261626398249074,0.2685543223909836,0.03824044018983841,0.01903590001165867,0.01037706434726715,-0.01850388944149017,0.001696556806564331,0.0006008148193359375,XArbitraryZVertical,-0.02991047775123118,-0.1366450772488671,-0.9873225182843116,0.07501831233537065,-0.07956434041261673,-0.2653378546237946,-0.9608669877052307,0,0,0,-1,-1,15835.42985475,unknown,2,2021-04-05 21:43:29.137 -0400,2021-04-05 19:23:45.401 -0400,749,1.41497,0,0,554.4654,0,0,2021-04-05 21:43:29.136 -0400,639366255.4723166,0,-2.44,98.19574,1,0.65
2021-04-05 21:44:15.621 -0400,0,0,0,0,0,0,0,0,0,15881.91625904167,-0.0842437744140625,-0.266021728515625,-0.9464263916015625,15881.88607704167,-2.978647936356272,-0.08317097643461212,0.2691242616968099,-0.01627399958670139,-0.009676541201770306,-0.02174428664147854,-0.01618292182683945,-0.005947917699813843,0.02471297979354858,XArbitraryZVertical,-0.03015251986674905,-0.1369485733037012,-0.9872731059691144,0.07501799584914723,-0.08008475601673126,-0.2658873200416565,-0.9606718420982361,0,0,0,-1,-1,15835.42985475,unknown,2,2021-04-05 21:43:29.137 -0400,2021-04-05 19:23:45.401 -0400,749,1.41497,0,0,554.4654,0,0,2021-04-05 21:43:29.136 -0400,639366255.4723166,0,-2.44,98.19574,1,0.65
2021-04-05 21:44:15.728 -0400,0,0,0,0,0,0,0,0,0,15881.95147016667,-0.0635986328125,-0.2498931884765625,-0.9843292236328125,15881.94646516667,-2.982474234125879,-0.08474434681432645,0.2624329571643925,-0.1264467835426331,-0.05279500409960747,-0.04202662035822868,0.01042534410953522,0.005326390266418457,-0.01434296369552612,XArbitraryZVertical,-0.03147327596855598,-0.1336469180379876,-0.9878209316868679,0.07319657577766481,-0.08174491673707962,-0.2594309747219086,-0.9622958898544312,0,0,0,-1,-1,15835.42985475,unknown,2,2021-04-05 21:43:29.137 -0400,2021-04-05 19:23:45.401 -0400,749,1.41497,0,0,554.4654,0,0,2021-04-05 21:43:29.136 -0400,639366255.4723166,0,-2.44,98.19574,1,0.65
2021-04-05 21:44:15.733 -0400,0,0,0,0,0,0,0,0,0,15881.98668716667,-0.0757293701171875,-0.263153076171875,-0.968902587890625,15881.97661616667,-2.982764051816266,-0.08653156882319493,0.2607297445703228,-0.07435987144708633,-0.03189744427800179,0.02054621279239655,0.02074329555034637,0.008075684309005737,-0.01930075883865356,XArbitraryZVertical,-0.03244707430337095,-0.1328670808335556,-0.9879107060096354,0.07297918452392846,-0.08350268751382828,-0.2577857077121735,-0.9625870585441589,0,0,0,-1,-1,15835.42985475,unknown,2,2021-04-05 21:43:29.137 -0400,2021-04-05 19:23:45.401 -0400,749,1.41497,0,0,554.4654,0,0,2021-04-05 21:43:29.136 -0400,639366255.4723166,0,-2.44,98.19574,1,0.65
2021-04-05 21:44:15.740 -0400,0,0,0,0,0,0,0,0,0,15882.02187416667,-0.08111572265625,-0.22698974609375,-0.9363555908203125,15882.00679816667,-2.982638660675123,-0.08681824760235318,0.256976675743552,-0.1568681746721268,0.02388219907879829,-0.0415329709649086,0.005508065223693848,-0.01419857144355774,-0.0025138258934021,XArbitraryZVertical,-0.03273842453903394,-0.1310271973903216,-0.9881362826405857,0.07312178907039786,-0.08386193960905075,-0.2541576623916626,-0.9635201096534729,0,0,0,-1,-1,15835.42985475,unknown,2,2021-04-05 21:43:29.137 -0400,2021-04-05 19:23:45.401 -0400,749,1.41497,0,0,554.4654,0,0,2021-04-05 21:43:29.136 -0400,639366255.4723166,0,-2.44,98.19574,1,0.65
2021-04-05 21:44:15.763 -0400,0,0,0,0,0,0,0,0,0,15882.05709116667,-0.0808563232421875,-0.2605743408203125,-0.9882354736328125,15882.03698016667,-2.981600957650298,-0.0873086882424957,0.254766797863461,-0.06723292171955109,0.0828554630279541,0.06444445997476578,-0.003080122172832489,0.002782732248306274,-0.01396077871322632,XArbitraryZVertical,-0.03300636603493819,-0.1299713588378558,-0.9882266477603452,0.07366124255814131,-0.08438324183225632,-0.2520197331905365,-0.9640360474586487,0,0,0,-1,-1,15835.42985475,unknown,2,2021-04-05 21:43:29.137 -0400,2021-04-05 19:23:45.401 -0400,749,1.41497,0,0,554.4654,0,0,2021-04-05 21:43:29.136 -0400,639366255.4723166,0,-2.44,98.19574,1,0.65
2021-04-05 21:44:15.797 -0400,0,0,0,0,0,0,0,0,0,15882.09227816667,-0.077117919921875,-0.2445526123046875,-0.9520263671875,15882.06713116667,-2.980744227732754,-0.08535172773932971,0.255619464618465,0.01545411255210638,0.03097493201494217,0.03533968701958656,0.001621842384338379,-0.007729500532150269,-0.02425062656402588,XArbitraryZVertical,-0.03194749438152869,-0.1303338638179986,-0.9881741975933656,0.07418937407332439,-0.08247815817594528,-0.2528447806835175,-0.9639849066734314,0,0,0,-1,-1,15835.42985475,unknown,2,2021-04-05 21:43:29.137 -0400,2021-04-05 19:23:45.401 -0400,749,1.41497,0,0,554.4654,0,0,2021-04-05 21:43:29.136 -0400,639366255.4723166,0,-2.44,98.19574,1,0.65
2021-04-05 21:44:15.832 -0400,0,0,0,0,0,0,0,0,0,15882.12746416667,-0.0761260986328125,-0.244110107421875,-0.950286865234375,15882.09731316667,-2.980187073624712,-0.08432464966498095,0.2557934454298753,-0.0491066500544548,0.007737275213003159,0.006014707032591105,0.003328807651996613,0.007255107164382935,0.01109862327575684,XArbitraryZVertical,-0.03139630591405902,-0.1303903762222198,-0.9881590758593739,0.07452708254972963,-0.08148431777954102,-0.2530131042003632,-0.9640252590179443,0,0,0,-1,-1,15835.42985475,unknown,2,2021-04-05 21:43:29.137 -0400,2021-04-05 19:23:45.401 -0400,749,1.41497,0,0,554.4654,0,0,2021-04-05 21:43:29.136 -0400,639366255.4723166,0,-2.44,98.19574,1,0.65
2021-04-05 21:44:15.868 -0400,0,0,0,0,0,0,0,0,0,15882.16268216667,-0.0760650634765625,-0.2399444580078125,-0.964447021484375,15882.15764616667,-2.979574396350902,-0.08546497857674118,0.2521889303863696,-0.07312818616628647,-0.00103761488571763,0.03152978792786598,0.003498286008834839,0.009350955486297607,0.01154124736785889,XArbitraryZVertical,-0.03207400577344405,-0.1286631612656331,-0.9883393347142417,0.0748500164572671,-0.08266088366508484,-0.249524250626564,-0.9648340940475464,0,0,0,-1,-1,15835.42985475,unknown,2,2021-04-05 21:43:29.137 -0400,2021-04-05 19:23:45.401 -0400,749,1.41497,0,0,554.4654,0,0,2021-04-05 21:43:29.136 -0400,639366255.4723166,0,-2.44,98.19574,1,0.65
2021-04-05 21:44:15.903 -0400,0,0,0,0,0,0,0,0,0,15882.19786916667,-0.0858612060546875,-0.243621826171875,-0.9766845703125,15882.18782816667,-2.978476822491244,-0.08547328357109428,0.249972980158601,-0.03705401346087456,0.02861354872584343,0.05361789464950562,-0.001634679734706879,0.009310215711593628,-0.005351722240447998,XArbitraryZVertical,-0.03210287953420657,-0.127586948047789,-0.9884322170961395,0.07544993827422461,-0.08271589875221252,-0.2473777830600739,-0.9653819799423218,0,0,0,-1,-1,15835.42985475,unknown,2,2021-04-05 21:43:29.137 -0400,2021-04-05 19:23:45.401 -0400,749,1.41497,0,0,554.4654,0,0,2021-04-05 21:43:29.136 -0400,639366255.4723166,0,-2.44,98.19574,1,0.65
2021-04-05 21:44:15.938 -0400,0,0,0,0,0,0,0,0,0,15882.23308616667,-0.0859832763671875,-0.2466278076171875,-0.9540557861328125,15882.21798016667,-2.976448436215093,-0.08479233494863857,0.250199085769341,0.06014042347669601,0.04008118063211441,0.06536620110273361,-0.003410704433917999,0.003669917583465576,-0.007579147815704346,XArbitraryZVertical,-0.03162711622262722,-0.1277050445583047,-0.9883523469574944,0.07648990119369301,-0.08205375820398331,-0.2475968450307846,-0.9653822779655457,0,0,0,-1,-1,15835.42985475,unknown,2,2021-04-05 21:43:29.137 -0400,2021-04-05 19:23:45.401 -0400,749,1.41497,0,0,554.4654,0,0,2021-04-05 21:43:29.136 -0400,639366255.4723166,0,-2.44,98.19574,1,0.65
2021-04-05 21:44:15.973 -0400,0,0,0,0,0,0,0,0,0,15882.26827316667,-0.0839996337890625,-0.24456787109375,-0.9425506591796875,15882.24816116667,-2.974239753573297,-0.08380854225026474,0.2518161962701836,0.04970375075936317,0.04322166368365288,0.05924740433692932,-0.004638239741325378,0.002382948994636536,0.01463812589645386,XArbitraryZVertical,-0.03092872460739597,-0.1285000475913196,-0.9881846957895066,0.07760222192670771,-0.08107036352157593,-0.2491632848978043,-0.9650623202323914,0,0,0,-1,-1,15835.42985475,unknown,2,2021-04-05 21:43:29.137 -0400,2021-04-05 19:23:45.401 -0400,749,1.41497,0,0,554.4654,0,0,2021-04-05 21:43:29.136 -0400,639366255.4723166,0,-2.44,98.19574,1,0.65
2021-04-05 21:44:16.008 -0400,0,0,0,0,0,0,0,0,0,15882.30345916667,-0.067657470703125,-0.2380828857421875,-0.9860076904296875,15882.27831316667,-2.973018146319965,-0.08365064635070903,0.2513374662117581,-0.05069043859839439,-0.01878705061972141,0.02362001501023769,-0.003071673214435577,0.004131823778152466,0.02264320850372314,XArbitraryZVertical,-0.03079344712516243,-0.1282764270818953,-0.9881685673090039,0.07822835007971581,-0.08092793822288513,-0.2486996203660965,-0.9651938676834106,0,0,0,-1,-1,15835.42985475,unknown,2,2021-04-05 21:43:29.137 -0400,2021-04-05 19:23:45.401 -0400,749,1.41497,0,0,554.4654,0,0,2021-04-05 21:43:29.136 -0400,639366255.4723166,0,-2.44,98.19574,1,0.65
2021-04-05 21:44:16.044 -0400,0,0,0,0,0,0,0,0,0,15882.33867716667,-0.078155517578125,-0.2471160888671875,-0.998748779296875,15882.30849516667,-2.972539361570345,-0.08427364051421425,0.2498907788056955,-0.01916242018342018,0.01607106439769268,0.06419691443443298,-0.001082152128219604,0.01783652603626251,-0.02748018503189087,XArbitraryZVertical,-0.03113486995485694,-0.1275940692934623,-0.9882276892404517,0.07846270945132029,-0.0815594345331192,-0.2472981363534927,-0.9655007719993591,0,0,0,-1,-1,15835.42985475,unknown,2,2021-04-05 21:43:29.137 -0400,2021-04-05 19:23:45.401 -0400,749,1.41497,0,0,554.4654,0,0,2021-04-05 21:43:29.136 -0400,639366255.4723166,0,-2.44,98.19574,1,0.65
2021-04-05 21:44:16.078 -0400,0,0,0,0,0,0,0,0,0,15882.37386316667,-0.0996856689453125,-0.251495361328125,-0.9610137939453125,15882.36882816667,-2.968727924119648,-0.08569524993341084,0.247969445264383,-0.01760224066674709,-0.007067995145916939,0.1115318611264229,-0.0125170573592186,0.00915372371673584,0.003025829792022705,XArbitraryZVertical,-0.03168128159665634,-0.1267618929221874,-0.9881692821748203,0.08030604125480231,-0.08297242969274521,-0.2454360276460648,-0.9658554196357727,0,0,0,-1,-1,15835.42985475,unknown,2,2021-04-05 21:43:29.137 -0400,2021-04-05 19:23:45.401 -0400,749,1.41497,0,0,554.4654,0,0,2021-04-05 21:43:29.136 -0400,639366255.4723166,0,-2.44,98.19574,1,0.65
2021-04-05 21:44:16.114 -0400,0,0,0,0,0,0,0,0,0,15882.40905016667,-0.1016387939453125,-0.2536163330078125,-0.992645263671875,15882.39901016667,-2.966029061079808,-0.08677770839677168,0.2463777138018386,-0.08258825540542603,-0.02306244894862175,0.0516715906560421,-0.01773973554372787,-0.01224130392074585,0.00356757640838623,XArbitraryZVertical,-0.03211836979543472,-0.1260630474135238,-0.988137514710121,0.08161352862538414,-0.08405163139104843,-0.2438926696777344,-0.9661530256271362,0,0,0,-1,-1,15835.42985475,unknown,2,2021-04-05 21:43:29.137 -0400,2021-04-05 19:23:45.401 -0400,749,1.41497,0,0,554.4654,0,0,2021-04-05 21:43:29.136 -0400,639366255.4723166,0,-2.44,98.19574,1,0.65
2021-04-05 21:44:16.149 -0400,0,0,0,0,0,0,0,0,0,15882.44426716667,-0.0920257568359375,-0.2372894287109375,-1.030349731445312,15882.42919216667,-2.966055101907554,-0.0874790166644306,0.2420643094749591,-0.1523196399211884,-0.01452494785189629,-0.01919755525887012,-0.01782555878162384,-0.008034378290176392,-0.0392758846282959,XArbitraryZVertical,-0.0326654050208195,-0.1239618730677703,-0.9883805363631285,0.08167271247625864,-0.08482030779123306,-0.2397072613239288,-0.9671328663825989,0,0,0,-1,-1,15835.42985475,unknown,2,2021-04-05 21:43:29.137 -0400,2021-04-05 19:23:45.401 -0400,749,1.41497,0,0,554.4654,0,0,2021-04-05 21:43:29.136 -0400,639366255.4723166,0,-2.44,98.19574,1,0.65
2021-04-05 21:44:16.231 -0400,0,0,0,0,0,0,0,0,0,15882.47945416667,-0.08892822265625,-0.240386962890625,-0.9787750244140625,15882.45934316667,-2.966654536517034,-0.08820605502213928,0.2392440378365537,-0.01703299023211002,-0.03508637472987175,0.005338646471500397,-0.005237661302089691,0.001311570405960083,-0.06028991937637329,XArbitraryZVertical,-0.03319147372873602,-0.1225890797613734,-0.9885560112160157,0.08140764764004489,-0.08558263629674911,-0.2369682639837265,-0.9677404761314392,0,0,0,-1,-1,15835.42985475,unknown,2,2021-04-05 21:43:29.137 -0400,2021-04-05 19:23:45.401 -0400,749,1.41497,0,0,554.4654,0,0,2021-04-05 21:43:29.136 -0400,639366255.4723166,0,-2.44,98.19574,1,0.65
2021-04-05 21:44:16.238 -0400,0,0,0,0,0,0,0,0,0,15882.51467116667,-0.0996856689453125,-0.2516632080078125,-0.9273834228515625,15882.48952516667,-2.965400033175077,-0.08983171622741853,0.2417228032136765,0.1244335398077965,-0.02138883620500565,0.04815328866243362,-0.001825422048568726,-0.001011192798614502,-0.01176291704177856,XArbitraryZVertical,-0.03380325478112303,-0.1239003534421875,-0.9883343856906777,0.08185990403595809,-0.08710277825593948,-0.2393756955862045,-0.9670121073722839,0,0,0,-1,-1,15835.42985475,unknown,2,2021-04-05 21:43:29.137 -0400,2021-04-05 19:23:45.401 -0400,749,1.41497,0,0,554.4654,0,0,2021-04-05 21:43:29.136 -0400,639366255.4723166,0,-2.44,98.19574,1,0.65
2021-04-05 21:44:16.255 -0400,0,0,0,0,0,0,0,0,0,15882.54985816667,-0.0944671630859375,-0.236541748046875,-0.93768310546875,15882.54985816667,-2.963758114980536,-0.08909001833581483,0.2457284693103924,0.0360938236117363,0.04063442349433899,-0.03279287740588188,-0.01210439205169678,-0.0002977550029754639,0.0333438515663147,XArbitraryZVertical,-0.03314786269802839,-0.1258745798419396,-0.9880449978235982,0.08260747225313399,-0.08629952371120453,-0.2432629764080048,-0.9661136269569397,0,0,0,-1,-1,15835.42985475,unknown,2,2021-04-05 21:43:29.137 -0400,2021-04-05 19:23:45.401 -0400,749,1.41497,0,0,554.4654,0,0,2021-04-05 21:43:29.136 -0400,639366255.4723166,0,-2.44,98.19574,1,0.65
2021-04-05 21:44:16.289 -0400,0,0,0,0,0,0,0,0,0,15882.58504516667,-0.073822021484375,-0.2210235595703125,-0.9635772705078125,15882.58004016667,-2.965059563210199,-0.08824881203230489,0.2468927549145935,0.03988119214773178,-0.004651524126529694,-0.05604507029056549,0.00393407791852951,0.01898936927318573,0.01349526643753052,XArbitraryZVertical,-0.03276014911284695,-0.1263931546765868,-0.9880434247385516,0.08198572908542529,-0.08546177297830582,-0.2443921267986298,-0.965903103351593,0,0,0,-1,-1,15835.42985475,unknown,2,2021-04-05 21:43:29.137 -0400,2021-04-05 19:23:45.401 -0400,749,1.41497,0,0,554.4654,0,0,2021-04-05 21:43:29.136 -0400,639366255.4723166,0,-2.44,98.19574,1,0.65
2021-04-05 21:44:16.325 -0400,0,0,0,0,0,0,0,0,0,15882.62026216667,-0.072235107421875,-0.219390869140625,-0.9781341552734375,15882.61019216667,-2.966689573647648,-0.08903462577815836,0.2477539113201923,-0.01486907154321671,-0.03707913681864738,-0.04521195963025093,0.01559960842132568,0.02876594662666321,-0.01113522052764893,XArbitraryZVertical,-0.03321174181315137,-0.1268233221499694,-0.9880457862769761,0.08110722312537749,-0.08620201796293259,-0.2452270686626434,-0.9656256437301636,0,0,0,-1,-1,15835.42985475,unknown,2,2021-04-05 21:43:29.137 -0400,2021-04-05 19:23:45.401 -0400,749,1.41497,0,0,554.4654,0,0,2021-04-05 21:43:29.136 -0400,639366255.4723166,0,-2.44,98.19574,1,0.65
2021-04-05 21:44:16.360 -0400,0,0,0,0,0,0,0,0,0,15882.65544916667,-0.0868377685546875,-0.2395782470703125,-0.94683837890625,15882.64037316667,-2.967219729884043,-0.08980179414905132,0.2482574123634521,0.04214587807655334,0.01846700720489025,0.006104688160121441,0.01167537271976471,0.02437125146389008,-0.006075680255889893,XArbitraryZVertical,-0.03360124203618928,-0.1270940167318645,-0.9880243734125722,0.08078277015542837,-0.08693170547485352,-0.2457151710987091,-0.9654361605644226,0,0,0,-1,-1,15835.42985475,unknown,2,2021-04-05 21:43:29.137 -0400,2021-04-05 19:23:45.401 -0400,749,1.41497,0,0,554.4654,0,0,2021-04-05 21:43:29.136 -0400,639366255.4723166,0,-2.44,98.19574,1,0.65
2021-04-05 21:44:16.395 -0400,0,0,0,0,0,0,0,0,0,15882.69066616667,-0.0892181396484375,-0.2529449462890625,-0.950286865234375,15882.67055516667,-2.966376546192455,-0.08811555742903314,0.2491530232279506,0.03483181446790695,0.09319958835840225,0.02934802696108818,-0.003827087581157684,0.004044845700263977,0.02238386869430542,XArbitraryZVertical,-0.03267337226025948,-0.1274816597304857,-0.9879646448757911,0.08128210684899247,-0.08528422564268112,-0.2465832233428955,-0.9653617739677429,0,0,0,-1,-1,15835.42985475,unknown,2,2021-04-05 21:43:29.137 -0400,2021-04-05 19:23:45.401 -0400,749,1.41497,0,0,554.4654,0,0,2021-04-05 21:43:29.136 -0400,639366255.4723166,0,-2.44,98.19574,1,0.65
2021-04-05 21:44:16.431 -0400,0,0,0,0,0,0,0,0,0,15882.72585316667,-0.0817718505859375,-0.244598388671875,-0.9672393798828125,15882.70070716667,-2.966056685500591,-0.08488344051328707,0.2481035292723676,-0.02974115125834942,0.08710805326700211,-0.002683060709387064,-0.007032610476016998,-0.007378876209259033,0.01560282707214355,XArbitraryZVertical,-0.03110470767502861,-0.1268371270101026,-0.9880658837532362,0.08167372336337578,-0.0821855217218399,-0.2455659955739975,-0.9658896923065186,0,0,0,-1,-1,15835.42985475,unknown,2,2021-04-05 21:43:29.137 -0400,2021-04-05 19:23:45.401 -0400,749,1.41497,0,0,554.4654,0,0,2021-04-05 21:43:29.136 -0400,639366255.4723166,0,-2.44,98.19574,1,0.65
2021-04-05 21:44:16.466 -0400,0,0,0,0,0,0,0,0,0,15882.76104016667,-0.0694732666015625,-0.24493408203125,-0.969573974609375,15882.73088916667,-2.96648674464687,-0.08238624640790256,0.2466206306011427,-0.03131454437971115,0.04832059144973755,-0.02375998347997665,-0.002365425229072571,-0.000439569354057312,0.003120660781860352,XArbitraryZVertical,-0.02996627292048969,-0.1259966049502267,-0.9882099444919434,0.08165773859721136,-0.07980313152074814,-0.2441282421350479,-0.9664537310600281,0,0,0,-1,-1,15835.42985475,unknown,2,2021-04-05 21:43:29.137 -0400,2021-04-05 19:23:45.401 -0400,749,1.41497,0,0,554.4654,0,0,2021-04-05 21:43:29.136 -0400,639366255.4723166,0,-2.44,98.19574,1,0.65
2021-04-05 21:44:16.501 -0400,0,0,0,0,0,0,0,0,0,15882.79625716667,-0.07513427734375,-0.2511444091796875,-0.967864990234375,15882.79122216667,-2.968854010229981,-0.0824803237922952,0.2442513156151582,-0.041146170347929,0.02105076611042023,-0.01315595861524343,0.002579435706138611,-0.003546595573425293,-0.009893476963043213,XArbitraryZVertical,-0.03026916709678752,-0.1247949803132492,-0.9884446502902332,0.08054286927674466,-0.07994148135185242,-0.2418299317359924,-0.9670199751853943,0,0,0,-1,-1,15835.42985475,unknown,2,2021-04-05 21:43:29.137 -0400,2021-04-05 19:23:45.401 -0400,749,1.41497,0,0,554.4654,0,0,2021-04-05 21:43:29.136 -0400,639366255.4723166,0,-2.44,98.19574,1,0.65
2021-04-05 21:44:16.537 -0400,0,0,0,0,0,0,0,0,0,15882.83144416667,-0.0671234130859375,-0.249481201171875,-0.9761810302734375,15882.82140416667,-2.969080443017859,-0.08140829797845436,0.2435625825346303,-0.02978676930069923,0.05503294616937637,0.003349181730300188,0.006378017365932465,-0.01083727180957794,-0.001387536525726318,XArbitraryZVertical,-0.02978458950386473,-0.1244083168929551,-0.9885103282748047,0.08051529450143159,-0.07891829311847687,-0.241161584854126,-0.9672709107398987,0,0,0,-1,-1,15835.42985475,unknown,2,2021-04-05 21:43:29.137 -0400,2021-04-05 19:23:45.401 -0400,749,1.41497,0,0,554.4654,0,0,2021-04-05 21:43:29.136 -0400,639366255.4723166,0,-2.44,98.19574,1,0.65
2021-04-05 21:44:16.571 -0400,0,0,0,0,0,0,0,0,0,15882.86666116667,-0.06024169921875,-0.2540435791015625,-0.96844482421875,15882.85155516667,-2.967996016224042,-0.07980594094533214,0.2430258597629769,0.02346919476985931,0.04513600468635559,0.07575077563524246,0.01518377661705017,-0.01242630183696747,-0.01430177688598633,XArbitraryZVertical,-0.02894954394185672,-0.124094406815003,-0.9885216231900817,0.08116436413298456,-0.07737858593463898,-0.2406406700611115,-0.9675250053405762,0,0,0,-1,-1,15835.42985475,unknown,2,2021-04-05 21:43:29.137 -0400,2021-04-05 19:23:45.401 -0400,749,1.41497,0,0,554.4654,0,0,2021-04-05 21:43:29.136 -0400,639366255.4723166,0,-2.44,98.19574,1,0.65
2021-04-05 21:44:16.607 -0400,0,0,0,0,0,0,0,0,0,15882.90184816667,-0.0766448974609375,-0.2534942626953125,-0.951873779296875,15882.88173716667,-2.964541320029631,-0.07953784081859094,0.2448249269570025,0.09879311174154282,0.03658651933073997,0.1274325400590897,0.01290620863437653,-0.01148919761180878,0.003581106662750244,XArbitraryZVertical,-0.02851944632640911,-0.1250213875133671,-0.9882779868552124,0.08284337112375101,-0.07708466798067093,-0.2423864752054214,-0.9671126008033752,0,0,0,-1,-1,15835.42985475,unknown,2,2021-04-05 21:43:29.137 -0400,2021-04-05 19:23:45.401 -0400,749,1.41497,0,0,554.4654,0,0,2021-04-05 21:43:29.136 -0400,639366255.4723166,0,-2.44,98.19574,1,0.65
2021-04-05 21:44:16.642 -0400,0,0,0,0,0,0,0,0,0,15882.93702175,-0.066986083984375,-0.25091552734375,-0.9221649169921875,15882.91188816667,-2.961177385314717,-0.07984547236430604,0.2467779168449857,0.01183179300278425,-0.04248172789812088,0.09563615173101425,0.0006993934512138367,-0.009213432669639587,0.01474136114120483,XArbitraryZVertical,-0.02836912555193409,-0.1260461748781884,-0.988017164792471,0.08443694625430392,-0.07734427601099014,-0.2442807704210281,-0.9666150808334351,0,0,0,-1,-1,15835.42985475,unknown,2,2021-04-05 21:43:29.137 -0400,2021-04-05 19:23:45.401 -0400,749,1.41497,0,0,554.4654,0,0,2021-04-05 21:43:29.136 -0400,639366255.4723166,0,-2.44,98.19574,1,0.65
2021-04-05 21:44:16.724 -0400,0,0,0,0,0,0,0,0,0,15882.97223875,-0.103912353515625,-0.2374114990234375,-0.975006103515625,15882.94205675,-2.957357099768012,-0.08174044441148459,0.2466930164176295,-0.03808990865945816,-0.09916625171899796,0.1349059045314789,0.01281706988811493,-0.01112683117389679,0.04641300439834595,XArbitraryZVertical,-0.02906835421368574,-0.1261399663485682,-0.9878320810162844,0.0862067400791551,-0.07917753607034683,-0.2441984415054321,-0.9664874672889709,0,0,0,-1,-1,15835.42985475,unknown,2,2021-04-05 21:43:29.137 -0400,2021-04-05 19:23:45.401 -0400,749,1.41497,0,0,554.4654,0,0,2021-04-05 21:43:29.136 -0400,639366255.4723166,0,-2.44,98.19574,1,0.65
2021-04-05 21:44:16.730 -0400,0,0,0,0,0,0,0,0,0,15883.00742575,-0.12127685546875,-0.25799560546875,-1.041336059570312,15883.00238975,-2.95066956970448,-0.09511400850256374,0.2400047276631907,-0.1059944853186607,-0.1063700392842293,0.0684080645442009,-0.03745119273662567,-0.001825198531150818,-0.05134880542755127,XArbitraryZVertical,-0.03558442175077978,-0.1235334360035792,-0.9877131818714635,0.08885893588834051,-0.09224850684404373,-0.2377072125673294,-0.9669464826583862,0,0,0,-1,-1,15835.42985475,unknown,2,2021-04-05 21:43:29.137 -0400,2021-04-05 19:23:45.401 -0400,749,1.41497,0,0,554.4654,0,0,2021-04-05 21:43:29.136 -0400,639366255.4723166,0,-2.44,98.19574,1,0.65
2021-04-05 21:44:16.748 -0400,0,0,0,0,0,0,0,0,0,15883.04261275,-0.098480224609375,-0.2475433349609375,-0.9971160888671875,15883.03257175,-2.95028702777416,-0.09570993610656819,0.2396051880411091,0.03126899525523186,0.03154792264103889,0.008030420169234276,-0.02844305336475372,-0.02032548189163208,-0.06337916851043701,XArbitraryZVertical,-0.03587514682950714,-0.1233696726189495,-0.9877083914630583,0.08902276781684262,-0.09283378720283508,-0.2373191118240356,-0.966985821723938,0,0,0,-1,-1,15835.42985475,unknown,2,2021-04-05 21:43:29.137 -0400,2021-04-05 19:23:45.401 -0400,749,1.41497,0,0,554.4654,0,0,2021-04-05 21:43:29.136 -0400,639366255.4723166,0,-2.44,98.19574,1,0.65
2021-04-05 21:44:16.783 -0400,0,0,0,0,0,0,0,0,0,15883.07782975,-0.0858154296875,-0.2613677978515625,-0.963775634765625,15883.06275375,-2.949562929558287,-0.09504342616583626,0.2417770538487273,0.04460642859339714,-0.0007697422988712788,0.0239181574434042,0.0006942227482795715,-0.01165494322776794,-0.01767510175704956,XArbitraryZVertical,-0.03539192419057503,-0.1244241598361384,-0.9875633310696844,0.08935803250206327,-0.09214013069868088,-0.2394283711910248,-0.9665320515632629,0,0,0,-1,-1,15835.42985475,unknown,2,2021-04-05 21:43:29.137 -0400,2021-04-05 19:23:45.401 -0400,749,1.41497,0,0,554.4654,0,0,2021-04-05 21:43:29.136 -0400,639366255.4723166,0,-2.44,98.19574,1,0.65
2021-04-05 21:44:16.818 -0400,0,0,0,0,0,0,0,0,0,15883.11301675,-0.0751800537109375,-0.2495574951171875,-0.9658203125,15883.09290575,-2.948979961003849,-0.09607581102466566,0.2419713574858945,0.005453054793179035,0.007219085469841957,0.0002088658511638641,0.007730022072792053,-0.02114036679267883,0.005513668060302734,XArbitraryZVertical,-0.03585558642603247,-0.1245765594409531,-0.9875076506970294,0.08957590771860693,-0.09313344955444336,-0.2396170198917389,-0.9663901329040527,0,0,0,-1,-1,15835.42985475,unknown,2,2021-04-05 21:43:29.137 -0400,2021-04-05 19:23:45.401 -0400,749,1.41497,0,0,554.4654,0,0,2021-04-05 21:43:29.136 -0400,639366255.4723166,0,-2.44,98.19574,1,0.65
2021-04-05 21:44:16.853 -0400,0,0,0,0,0,0,0,0,0,15883.14823375,-0.0770263671875,-0.2388153076171875,-0.958709716796875,15883.12308675,-2.948488314687211,-0.09613351582606236,0.2429855049396654,0.08138339966535568,0.0223084744066,0.02375395596027374,0.01798579841852188,-0.0089559406042099,0.0003220438957214355,XArbitraryZVertical,-0.03580205583136168,-0.1250881136961877,-0.9874258615004693,0.08978506427709416,-0.09316583722829819,-0.2406014949083328,-0.9661423563957214,0,0,0,-1,-1,15835.42985475,unknown,2,2021-04-05 21:43:29.137 -0400,2021-04-05 19:23:45.401 -0400,749,1.41497,0,0,554.4654,0,0,2021-04-05 21:43:29.136 -0400,639366255.4723166,0,-2.44,98.19574,1,0.65
2021-04-05 21:44:16.889 -0400,0,0,0,0,0,0,0,0,0,15883.18342075,-0.0702056884765625,-0.235748291015625,-0.95367431640625,15883.15323875,-2.946943740480791,-0.09512898376565246,0.2463629401988417,0.1156976595520973,0.06523142009973526,0.04259069263935089,0.01232936233282089,0.008893042802810669,0.004483461380004883,XArbitraryZVertical,-0.03503708389310969,-0.1267355529495555,-0.9871769402483654,0.0905111357355151,-0.0921175628900528,-0.2438783347606659,-0.9654210209846497,0,0,0,-1,-1,15835.42985475,unknown,2,2021-04-05 21:43:29.137 -0400,2021-04-05 19:23:45.401 -0400,749,1.41497,0,0,554.4654,0,0,2021-04-05 21:43:29.136 -0400,639366255.4723166,0,-2.44,98.19574,1,0.65
2021-04-05 21:44:16.923 -0400,0,0,0,0,0,0,0,0,0,15883.21860675,-0.07281494140625,-0.239227294921875,-0.9608001708984375,15883.21360275,-2.943364517874413,-0.09094153834169973,0.2516477125334869,0.06449541449546814,0.08409749716520309,0.09258375316858292,0.01979483664035797,0.0135570615530014,0.005699992179870605,XArbitraryZVertical,-0.03246959618570687,-0.129209466386375,-0.9867696758689594,0.09239188976135258,-0.08795583993196487,-0.2490001171827316,-0.9645012617111206,0,0,0,-1,-1,15835.42985475,unknown,2,2021-04-05 21:43:29.137 -0400,2021-04-05 19:23:45.401 -0400,749,1.41497,0,0,554.4654,0,0,2021-04-05 21:43:29.136 -0400,639366255.4723166,0,-2.44,98.19574,1,0.65
2021-04-05 21:44:16.959 -0400,0,0,0,0,0,0,0,0,0,15883.25382475,-0.087066650390625,-0.24560546875,-0.945587158203125,15883.24375375,-2.940098451100265,-0.08863911127265109,0.2532756510435127,0.08615807443857193,0.1015612408518791,0.1129630953073502,0.006414264440536499,0.008877277374267578,0.007646381855010986,XArbitraryZVertical,-0.03103706725944486,-0.1299561643075687,-0.9865557307057906,0.09410605665397186,-0.08569891750812531,-0.2505764365196228,-0.9642961621284485,0,0,0,-1,-1,15835.42985475,unknown,2,2021-04-05 21:43:29.137 -0400,2021-04-05 19:23:45.401 -0400,749,1.41497,0,0,554.4654,0,0,2021-04-05 21:43:29.136 -0400,639366255.4723166,0,-2.44,98.19574,1,0.65
2021-04-05 21:44:16.994 -0400,0,0,0,0,0,0,0,0,0,15883.28901175,-0.099761962890625,-0.26153564453125,-0.942779541015625,15883.27393575,-2.936303857096471,-0.08584660380901668,0.2552488009117935,0.06761001795530319,0.1099826022982597,0.1166038885712624,-0.006605841219425201,0.003294944763183594,0.02086102962493896,XArbitraryZVertical,-0.0293076689064981,-0.1308527018886058,-0.9862973856820292,0.09610452553150954,-0.08296322822570801,-0.2524861693382263,-0.9640372395515442,0,0,0,-1,-1,15835.42985475,unknown,2,2021-04-05 21:43:29.137 -0400,2021-04-05 19:23:45.401 -0400,749,1.41497,0,0,554.4654,0,0,2021-04-05 21:43:29.136 -0400,639366255.4723166,0,-2.44,98.19574,1,0.65
2021-04-05 21:44:17.029 -0400,0,0,0,0,0,0,0,0,0,15883.32422875,-0.1055908203125,-0.27069091796875,-0.9390716552734375,15883.30411775,-2.933149090900169,-0.08308387695914488,0.2554589344583141,-0.002500641858205199,0.1007940024137497,0.08494564145803452,-0.0192226767539978,-0.01388150453567505,0.02233058214187622,XArbitraryZVertical,-0.0277275902655326,-0.1308672352689287,-0.9861710035109365,0.0978352126277241,-0.0802951380610466,-0.2526894807815552,-0.9642099142074585,0,0,0,-1,-1,15835.42985475,unknown,2,2021-04-05 21:43:29.137 -0400,2021-04-05 19:23:45.401 -0400,749,1.41497,0,0,554.4654,0,0,2021-04-05 21:43:29.136 -0400,639366255.4723166,0,-2.44,98.19574,1,0.65
