loggingTime(txt),locationTimestamp_since1970(s),locationLatitude(WGS84),locationLongitude(WGS84),locationAltitude(m),locationSpeed(m/s),locationCourse(°),locationVerticalAccuracy(m),locationHorizontalAccuracy(m),locationFloor(Z),accelerometerTimestamp_sinceReboot(s),accelerometerAccelerationX(G),accelerometerAccelerationY(G),accelerometerAccelerationZ(G),motionTimestamp_sinceReboot(s),motionYaw(rad),motionRoll(rad),motionPitch(rad),motionRotationRateX(rad/s),motionRotationRateY(rad/s),motionRotationRateZ(rad/s),motionUserAccelerationX(G),motionUserAccelerationY(G),motionUserAccelerationZ(G),motionAttitudeReferenceFrame(txt),motionQuaternionX(R),motionQuaternionY(R),motionQuaternionZ(R),motionQuaternionW(R),motionGravityX(G),motionGravityY(G),motionGravityZ(G),motionMagneticFieldX(µT),motionMagneticFieldY(µT),motionMagneticFieldZ(µT),motionHeading(°),motionMagneticFieldCalibrationAccuracy(Z),activityTimestamp_sinceReboot(s),activity(txt),activityActivityConfidence(Z),activityActivityStartDate(txt),pedometerStartDate(txt),pedometerNumberofSteps(N),pedometerAverageActivePace(s/m),pedometerCurrentPace(s/m),pedometerCurrentCadence(steps/s),pedometerDistance(m),pedometerFloorAscended(N),pedometerFloorDescended(N),pedometerEndDate(txt),altimeterTimestamp_sinceReboot(s),altimeterReset(bool),altimeterRelativeAltitude(m),altimeterPressure(kPa),batteryState(N),batteryLevel(R)
2021-04-05 21:31:48.336 -0400,0,0,0,0,0,0,0,0,0,15247.92076541667,-0.07244873046875,-0.2632904052734375,-0.9548797607421875,15247.90065441667,-1.734583761087029,-0.06343788651124715,0.2667439260209558,0.04584867879748344,-0.001033118925988674,-0.03317141160368919,-0.005573302507400513,-0.0111272931098938,-0.009489297866821289,XArbitraryZVertical,0.06200930576992229,-0.1216876812381599,-0.7581553874849065,0.6376105628635882,-0.06115332245826721,-0.2635919153690338,-0.9626939296722412,0,0,0,-1,-1,15223.454926625,unknown,2,2021-04-05 21:31:23.869 -0400,2021-04-05 19:23:45.401 -0400,693,1.413524,0,0,510.951,0,0,2021-04-05 21:31:23.868 -0400,639365507.0378988,0,-2.49,98.19706,1,0.67
2021-04-05 21:31:48.401 -0400,0,0,0,0,0,0,0,0,0,15247.95598241667,-0.0602569580078125,-0.2652587890625,-0.9671173095703125,15247.93083641667,-1.735141824525678,-0.06285327460448904,0.2680443968708638,-0.0528777651488781,0.01815143227577209,-0.04223887249827385,-0.00669175386428833,-0.001221328973770142,0.004867017269134521,XArbitraryZVertical,0.06261562757679505,-0.1220081952614037,-0.7582621422726207,0.6373631194753397,-0.06056892871856689,-0.2648461759090424,-0.9623865485191345,0,0,0,-1,-1,15223.454926625,unknown,2,2021-04-05 21:31:23.869 -0400,2021-04-05 19:23:45.401 -0400,693,1.413524,0,0,510.951,0,0,2021-04-05 21:31:23.868 -0400,639365507.0378988,0,-2.49,98.19706,1,0.67
2021-04-05 21:31:48.430 -0400,0,0,0,0,0,0,0,0,0,15247.99116941667,-0.0491180419921875,-0.2768707275390625,-0.9770355224609375,15247.96098741667,-1.736432246445478,-0.06212806678782778,0.2661526742270027,-0.05484217032790184,0.01502922549843788,-0.008810593746602535,-0.000354912132024765,-0.002237230539321899,-0.004188716411590576,XArbitraryZVertical,0.0622035344493816,-0.1211050605443005,-0.758727755023536,0.637021597291172,-0.05990198254585266,-0.2630215287208557,-0.9629285931587219,0,0,0,-1,-1,15223.454926625,unknown,2,2021-04-05 21:31:23.869 -0400,2021-04-05 19:23:45.401 -0400,693,1.413524,0,0,510.951,0,0,2021-04-05 21:31:23.868 -0400,639365507.0378988,0,-2.49,98.19706,1,0.67
2021-04-05 21:31:48.441 -0400,0,0,0,0,0,0,0,0,0,15248.02635641667,-0.0608367919921875,-0.271148681640625,-0.9552764892578125,15248.02132141667,-1.736202995409217,-0.06466479230870154,0.2666467328211266,0.08945542573928833,-0.03519533202052116,0.01360851153731346,0.003757640719413757,-0.008108288049697876,0.008633732795715332,XArbitraryZVertical,0.06141407926354234,-0.1220919696894313,-0.7587131302769476,0.6369272465135852,-0.06233606860041618,-0.2634981572628021,-0.9626437425613403,0,0,0,-1,-1,15223.454926625,unknown,2,2021-04-05 21:31:23.869 -0400,2021-04-05 19:23:45.401 -0400,693,1.413524,0,0,510.951,0,0,2021-04-05 21:31:23.868 -0400,639365507.0378988,0,-2.49,98.19706,1,0.67
2021-04-05 21:31:48.477 -0400,0,0,0,0,0,0,0,0,0,15248.06157341667,-0.0591888427734375,-0.270843505859375,-0.9585113525390625,15248.05150341667,-1.736517655088201,-0.0642198695322891,0.2685017202254667,0.006172105204313993,0.009686104953289032,-0.03783007711172104,-0.001462891697883606,-0.01433014869689941,0.005486369132995605,XArbitraryZVertical,0.06216035222385023,-0.1226585712423456,-0.7587243509402289,0.636732634747292,-0.06187628582119942,-0.2652871310710907,-0.9621819257736206,0,0,0,-1,-1,15223.454926625,unknown,2,2021-04-05 21:31:23.869 -0400,2021-04-05 19:23:45.401 -0400,693,1.413524,0,0,510.951,0,0,2021-04-05 21:31:23.868 -0400,639365507.0378988,0,-2.49,98.19706,1,0.67
2021-04-05 21:31:48.512 -0400,0,0,0,0,0,0,0,0,0,15248.09676041667,-0.05889892578125,-0.2758026123046875,-0.9757232666015625,15248.08168441667,-1.737591159258994,-0.06304593388706553,0.2694025072276163,0.04916918277740479,0.03949965909123421,-0.02343481034040451,-0.003080569207668304,-0.003574073314666748,-5.161762237548828e-05,XArbitraryZVertical,0.06282956355587649,-0.1226578008374725,-0.7589924238970098,0.6363474080231837,-0.06073162332177162,-0.2661555409431458,-0.9620150327682495,0,0,0,-1,-1,15223.454926625,unknown,2,2021-04-05 21:31:23.869 -0400,2021-04-05 19:23:45.401 -0400,693,1.413524,0,0,510.951,0,0,2021-04-05 21:31:23.868 -0400,639365507.0378988,0,-2.49,98.19706,1,0.67
2021-04-05 21:31:48.548 -0400,0,0,0,0,0,0,0,0,0,15248.13194741667,-0.0625457763671875,-0.2687225341796875,-0.97064208984375,15248.11183641667,-1.738115965268745,-0.06163637514859641,0.2706758630334778,0.01961961388587952,0.03837697207927704,-0.003326179692521691,0.002500437200069427,-0.005215495824813843,-0.01010215282440186,XArbitraryZVertical,0.06374148873252877,-0.1227057905486906,-0.7590620597605305,0.6361644057612509,-0.05935462191700935,-0.2673827409744263,-0.9617606401443481,0,0,0,-1,-1,15223.454926625,unknown,2,2021-04-05 21:31:23.869 -0400,2021-04-05 19:23:45.401 -0400,693,1.413524,0,0,510.951,0,0,2021-04-05 21:31:23.868 -0400,639365507.0378988,0,-2.49,98.19706,1,0.67
2021-04-05 21:31:48.583 -0400,0,0,0,0,0,0,0,0,0,15248.16716441667,-0.062255859375,-0.2653961181640625,-0.955413818359375,15248.14201841667,-1.738128387894098,-0.06106848080781384,0.2716180528879447,0.03477862477302551,0.005071604624390602,-0.006945265457034111,-0.0036916583776474,-0.004353523254394531,-0.01102238893508911,XArbitraryZVertical,0.06425892127582676,-0.1228806178860726,-0.7590084701610217,0.6361424835258576,-0.05879303067922592,-0.2682905197143555,-0.9615423083305359,0,0,0,-1,-1,15223.454926625,unknown,2,2021-04-05 21:31:23.869 -0400,2021-04-05 19:23:45.401 -0400,693,1.413524,0,0,510.951,0,0,2021-04-05 21:31:23.868 -0400,639365507.0378988,0,-2.49,98.19706,1,0.67
2021-04-05 21:31:48.618 -0400,0,0,0,0,0,0,0,0,0,15248.20235141667,-0.06280517578125,-0.27008056640625,-0.945220947265625,15248.20235141667,-1.737700086150038,-0.06176718601674847,0.2755140096034818,0.02533777616918087,-0.03464032709598541,0.01454336475580931,-0.001650471240282059,0.001671165227890015,0.01579409837722778,XArbitraryZVertical,0.06527186057860948,-0.1245566869857132,-0.758730392228297,0.6360452128811538,-0.05939988046884537,-0.2720415890216827,-0.9604504108428955,0,0,0,-1,-1,15223.454926625,unknown,2,2021-04-05 21:31:23.869 -0400,2021-04-05 19:23:45.401 -0400,693,1.413524,0,0,510.951,0,0,2021-04-05 21:31:23.868 -0400,639365507.0378988,0,-2.49,98.19706,1,0.67
2021-04-05 21:31:48.653 -0400,0,0,0,0,0,0,0,0,0,15248.23753841667,-0.06304931640625,-0.27532958984375,-0.96954345703125,15248.23253341667,-1.737320702773443,-0.06234769596016854,0.2755905666037992,0.01372847985476255,-0.006868370808660984,0.008781015872955322,-0.002559065818786621,-0.00387042760848999,-0.002968668937683105,XArbitraryZVertical,0.06509989230920186,-0.1247577908798046,-0.7586253925561194,0.6361485914234384,-0.05995612218976021,-0.2721152603626251,-0.9603949785232544,0,0,0,-1,-1,15223.454926625,unknown,2,2021-04-05 21:31:23.869 -0400,2021-04-05 19:23:45.401 -0400,693,1.413524,0,0,510.951,0,0,2021-04-05 21:31:23.868 -0400,639365507.0378988,0,-2.49,98.19706,1,0.67
2021-04-05 21:31:48.688 -0400,0,0,0,0,0,0,0,0,0,15248.27278425,-0.054656982421875,-0.275787353515625,-0.954132080078125,15248.26271325,-1.737409894863257,-0.0618058514901702,0.2773900986155748,0.06367997825145721,0.01946455612778664,-0.01208852883428335,-0.005215518176555634,-0.003802478313446045,0.006552636623382568,XArbitraryZVertical,0.06587805598530144,-0.1252659499424861,-0.7585592678519862,0.6360475766891678,-0.05940538644790649,-0.273846447467804,-0.9599370360374451,0,0,0,-1,-1,15223.454926625,unknown,2,2021-04-05 21:31:23.869 -0400,2021-04-05 19:23:45.401 -0400,693,1.413524,0,0,510.951,0,0,2021-04-05 21:31:23.868 -0400,639365507.0378988,0,-2.49,98.19706,1,0.67
2021-04-05 21:31:48.724 -0400,0,0,0,0,0,0,0,0,0,15248.30797125,-0.05743408203125,-0.2847747802734375,-0.9636993408203125,15248.29289525,-1.737156087393976,-0.06195004092578272,0.278535339640541,0.02155759558081627,0.0005730134434998035,0.008796395733952522,-0.001266606152057648,0.00012168288230896,0.002354681491851807,XArbitraryZVertical,0.06620726417968698,-0.1257345924722057,-0.7584341032823929,0.6360701359403926,-0.05952434614300728,-0.2749477326869965,-0.9596148133277893,0,0,0,-1,-1,15223.454926625,unknown,2,2021-04-05 21:31:23.869 -0400,2021-04-05 19:23:45.401 -0400,693,1.413524,0,0,510.951,0,0,2021-04-05 21:31:23.868 -0400,639365507.0378988,0,-2.49,98.19706,1,0.67
2021-04-05 21:31:48.759 -0400,0,0,0,0,0,0,0,0,0,15248.34315725,-0.0595550537109375,-0.2687225341796875,-0.95404052734375,15248.32304625,-1.737282992647441,-0.0617686694030358,0.279525697753869,0.03997420892119408,0.02533701062202454,-0.0004084371030330658,-3.843009471893311e-05,-0.0003758370876312256,0.006808161735534668,XArbitraryZVertical,0.06658624668427741,-0.1260539516755521,-0.7584256777400266,0.635977273822168,-0.05933345854282379,-0.2758997976779938,-0.9593533277511597,0,0,0,-1,-1,15223.454926625,unknown,2,2021-04-05 21:31:23.869 -0400,2021-04-05 19:23:45.401 -0400,693,1.413524,0,0,510.951,0,0,2021-04-05 21:31:23.868 -0400,639365507.0378988,0,-2.49,98.19706,1,0.67
2021-04-05 21:31:48.794 -0400,0,0,0,0,0,0,0,0,0,15248.37837525,-0.053802490234375,-0.2686920166015625,-0.956146240234375,15248.35322825,-1.737048997197239,-0.0614180280780281,0.2802580419793068,-0.01572355069220066,0.009660599753260612,-0.01090007647871971,-0.002233546227216721,0.006202667951583862,0.006154000759124756,XArbitraryZVertical,0.06696925264056604,-0.1262102930971974,-0.7583077956580985,0.6360466210490793,-0.05898464843630791,-0.276603639125824,-0.9591721892356873,0,0,0,-1,-1,15223.454926625,unknown,2,2021-04-05 21:31:23.869 -0400,2021-04-05 19:23:45.401 -0400,693,1.413524,0,0,510.951,0,0,2021-04-05 21:31:23.868 -0400,639365507.0378988,0,-2.49,98.19706,1,0.67
2021-04-05 21:31:48.829 -0400,0,0,0,0,0,0,0,0,0,15248.41356225,-0.053863525390625,-0.276824951171875,-0.9608917236328125,15248.38338025,-1.737973072214433,-0.06085138922452223,0.2795645409577259,-0.02129657194018364,0.03752840682864189,-0.01614983379840851,0.004650361835956573,0.007245123386383057,0.003250420093536377,XArbitraryZVertical,0.066903163228049,-0.1257999595456711,-0.7586127890562294,0.6357711776385749,-0.0584527850151062,-0.2759371101856232,-0.9593966603279114,0,0,0,-1,-1,15223.454926625,unknown,2,2021-04-05 21:31:23.869 -0400,2021-04-05 19:23:45.401 -0400,693,1.413524,0,0,510.951,0,0,2021-04-05 21:31:23.868 -0400,639365507.0378988,0,-2.49,98.19706,1,0.67
2021-04-05 21:31:48.903 -0400,0,0,0,0,0,0,0,0,0,15248.44874825,-0.0576934814453125,-0.2730560302734375,-0.954681396484375,15248.44374325,-1.737875933746265,-0.05846883205711678,0.2788012965574491,-0.05709892138838768,0.01503483764827251,0.01603195630013943,-0.0004614666104316711,0.006358832120895386,0.008067786693572998,XArbitraryZVertical,0.0675678315249444,-0.1247517407580025,-0.7585350574562693,0.6360000772875353,-0.05617909505963326,-0.2752034366130829,-0.9597432017326355,0,0,0,-1,-1,15223.454926625,unknown,2,2021-04-05 21:31:23.869 -0400,2021-04-05 19:23:45.401 -0400,693,1.413524,0,0,510.951,0,0,2021-04-05 21:31:23.868 -0400,639365507.0378988,0,-2.49,98.19706,1,0.67
2021-04-05 21:31:48.950 -0400,0,0,0,0,0,0,0,0,0,15248.48396625,-0.059173583984375,-0.2921142578125,-0.9600067138671875,15248.47389525,-1.737230387342842,-0.0588380673780494,0.2769876601270743,-0.0552026741206646,-0.03041438199579716,0.01019518822431564,-0.002610806375741959,-0.01540473103523254,0.004774749279022217,XArbitraryZVertical,0.06688547067377412,-0.1241644338004819,-0.7584209886361155,0.6363231606517403,-0.05656272172927856,-0.2734593749046326,-0.9602190256118774,0,0,0,-1,-1,15223.454926625,unknown,2,2021-04-05 21:31:23.869 -0400,2021-04-05 19:23:45.401 -0400,693,1.413524,0,0,510.951,0,0,2021-04-05 21:31:23.868 -0400,639365507.0378988,0,-2.49,98.19706,1,0.67
2021-04-05 21:31:48.955 -0400,0,0,0,0,0,0,0,0,0,15248.51915225,-0.065093994140625,-0.2845458984375,-0.961395263671875,15248.50407725,-1.736956795090092,-0.06072586860256244,0.2751721830641369,-0.04316188767552376,-0.09167087078094482,0.02631055749952793,0.002115748822689056,-0.01789915561676025,0.002474665641784668,XArbitraryZVertical,0.06560319467610569,-0.1240723932728981,-0.7584744145155966,0.6364108864773006,-0.05840535461902618,-0.2717126607894897,-0.9606045484542847,0,0,0,-1,-1,15223.454926625,unknown,2,2021-04-05 21:31:23.869 -0400,2021-04-05 19:23:45.401 -0400,693,1.413524,0,0,510.951,0,0,2021-04-05 21:31:23.868 -0400,639365507.0378988,0,-2.49,98.19706,1,0.67
2021-04-05 21:31:48.969 -0400,0,0,0,0,0,0,0,0,0,15248.55433925,-0.07244873046875,-0.2821807861328125,-0.974761962890625,15248.53422825,-1.735600175860671,-0.06288547630089328,0.2746518562062555,-0.006937172263860703,-0.03238577768206596,0.04286989569664001,-0.008389495313167572,-0.006604909896850586,-0.0004577040672302246,XArbitraryZVertical,0.06470138555372516,-0.1245197428527755,-0.7581350003505933,0.636820269451314,-0.06048862263560295,-0.2712118625640869,-0.9606171250343323,0,0,0,-1,-1,15223.454926625,unknown,2,2021-04-05 21:31:23.869 -0400,2021-04-05 19:23:45.401 -0400,693,1.413524,0,0,510.951,0,0,2021-04-05 21:31:23.868 -0400,639365507.0378988,0,-2.49,98.19706,1,0.67
2021-04-05 21:31:49.005 -0400,0,0,0,0,0,0,0,0,0,15248.58955625,-0.067962646484375,-0.2703704833984375,-0.959320068359375,15248.56441025,-1.734849583425218,-0.06343782244430105,0.2744756786163086,-0.0107718575745821,0.02141566947102547,0.0136259887367487,-0.01118229329586029,-0.008163034915924072,-0.01031601428985596,XArbitraryZVertical,0.06448209538493337,-0.1246051358283468,-0.7579211984927576,0.6370801947488008,-0.06102223321795464,-0.2710422873497009,-0.960631251335144,0,0,0,-1,-1,15223.454926625,unknown,2,2021-04-05 21:31:23.869 -0400,2021-04-05 19:23:45.401 -0400,693,1.413524,0,0,510.951,0,0,2021-04-05 21:31:23.868 -0400,639365507.0378988,0,-2.49,98.19706,1,0.67
2021-04-05 21:31:49.041 -0400,0,0,0,0,0,0,0,0,0,15248.62474325,-0.068084716796875,-0.2741546630859375,-0.9506683349609375,15248.59456125,-1.734360501373535,-0.06329384608021633,0.2748430390611295,-0.01241958886384964,-0.02056771144270897,0.02072089910507202,-0.00708496943116188,0.001025408506393433,0.001220524311065674,XArbitraryZVertical,0.06468537438718411,-0.1246816626650592,-0.7577452853667394,0.6372536846070259,-0.06087762117385864,-0.2713958621025085,-0.9605405926704407,0,0,0,-1,-1,15223.454926625,unknown,2,2021-04-05 21:31:23.869 -0400,2021-04-05 19:23:45.401 -0400,693,1.413524,0,0,510.951,0,0,2021-04-05 21:31:23.868 -0400,639365507.0378988,0,-2.49,98.19706,1,0.67
2021-04-05 21:31:49.075 -0400,0,0,0,0,0,0,0,0,0,15248.65993025,-0.07769775390625,-0.2690887451171875,-0.9532318115234375,15248.65492525,-1.733752416414842,-0.06657371910098824,0.2745418471089844,-0.02206028811633587,-0.02242825739085674,-0.01769105345010757,-0.01058223843574524,-5.796551704406738e-05,0.007688999176025391,XArbitraryZVertical,0.0633838392544505,-0.1255940379719239,-0.7576691203386045,0.6372959022031902,-0.06403317302465439,-0.2711059749126434,-0.9604172706604004,0,0,0,-1,-1,15223.454926625,unknown,2,2021-04-05 21:31:23.869 -0400,2021-04-05 19:23:45.401 -0400,693,1.413524,0,0,510.951,0,0,2021-04-05 21:31:23.868 -0400,639365507.0378988,0,-2.49,98.19706,1,0.67
2021-04-05 21:31:49.110 -0400,0,0,0,0,0,0,0,0,0,15248.69514725,-0.07879638671875,-0.27606201171875,-0.9619140625,15248.68507625,-1.734746421706425,-0.06655322978734104,0.2736291350306309,-0.04297633096575737,-0.004825275857001543,-0.04767994582653046,-0.01687211543321609,-0.001958936452865601,0.002367317676544189,XArbitraryZVertical,0.06303534426975632,-0.1252757437324719,-0.7580229189383557,0.6369724658680022,-0.06402992457151413,-0.270227313041687,-0.9606650471687317,0,0,0,-1,-1,15223.454926625,unknown,2,2021-04-05 21:31:23.869 -0400,2021-04-05 19:23:45.401 -0400,693,1.413524,0,0,510.951,0,0,2021-04-05 21:31:23.868 -0400,639365507.0378988,0,-2.49,98.19706,1,0.67
2021-04-05 21:31:49.146 -0400,0,0,0,0,0,0,0,0,0,15248.73033425,-0.071380615234375,-0.267608642578125,-0.961273193359375,15248.71525825,-1.736415808128572,-0.06673800679821125,0.2730317331315016,-0.01093213632702827,-0.02601266838610172,-0.0409984402358532,-0.009512223303318024,-0.003724336624145508,-0.0005201101303100586,XArbitraryZVertical,0.0626685185731885,-0.1251622915511013,-0.7585847910573252,0.6363616278141826,-0.0642181858420372,-0.2696520984172821,-0.9608141183853149,0,0,0,-1,-1,15223.454926625,unknown,2,2021-04-05 21:31:23.869 -0400,2021-04-05 19:23:45.401 -0400,693,1.413524,0,0,510.951,0,0,2021-04-05 21:31:23.868 -0400,639365507.0378988,0,-2.49,98.19706,1,0.67
2021-04-05 21:31:49.180 -0400,0,0,0,0,0,0,0,0,0,15248.76552125,-0.075469970703125,-0.2709197998046875,-0.9616241455078125,15248.74541025,-1.73731000570638,-0.06778718764804426,0.2728675284783535,-0.02517320029437542,-0.03036334924399853,-0.03700098395347595,-0.00543416291475296,-0.004630118608474731,-0.002298593521118164,XArbitraryZVertical,0.06216165384303719,-0.1254621207796974,-0.7589087111682986,0.6359658978998657,-0.06522922217845917,-0.269493967294693,-0.9607903957366943,0,0,0,-1,-1,15223.454926625,unknown,2,2021-04-05 21:31:23.869 -0400,2021-04-05 19:23:45.401 -0400,693,1.413524,0,0,510.951,0,0,2021-04-05 21:31:23.868 -0400,639365507.0378988,0,-2.49,98.19706,1,0.67
2021-04-05 21:31:49.216 -0400,0,0,0,0,0,0,0,0,0,15248.80073825,-0.0657806396484375,-0.269805908203125,-0.967315673828125,15248.77559225,-1.739048209252691,-0.06818460662833897,0.2718388119597657,-0.05641106888651848,-0.001692086923867464,-0.0810692310333252,-0.01008413732051849,-0.00459858775138855,-0.000904083251953125,XArbitraryZVertical,0.06157126893361827,-0.1252547400084311,-0.7595155812360239,0.6353395523250379,-0.06562990695238113,-0.2685031890869141,-0.9610404372215271,0,0,0,-1,-1,15223.454926625,unknown,2,2021-04-05 21:31:23.869 -0400,2021-04-05 19:23:45.401 -0400,693,1.413524,0,0,510.951,0,0,2021-04-05 21:31:23.868 -0400,639365507.0378988,0,-2.49,98.19706,1,0.67
2021-04-05 21:31:49.251 -0400,0,0,0,0,0,0,0,0,0,15248.83592525,-0.0587005615234375,-0.276763916015625,-0.98272705078125,15248.80577325,-1.741905589835064,-0.06762065539440792,0.2705934902317934,-0.03674645721912384,0.003004479454830289,-0.07499916851520538,-0.0006701201200485229,-0.002502530813217163,-0.005905508995056152,XArbitraryZVertical,0.0612073546987216,-0.124693896007756,-0.7604560965477375,0.6343593170453261,-0.0651104599237442,-0.2673033773899078,-0.9614101648330688,0,0,0,-1,-1,15223.454926625,unknown,2,2021-04-05 21:31:23.869 -0400,2021-04-05 19:23:45.401 -0400,693,1.413524,0,0,510.951,0,0,2021-04-05 21:31:23.868 -0400,639365507.0378988,0,-2.49,98.19706,1,0.67
2021-04-05 21:31:49.287 -0400,0,0,0,0,0,0,0,0,0,15248.87111225,-0.0485076904296875,-0.2595367431640625,-0.964935302734375,15248.86610725,-1.745273358756242,-0.06776085162118674,0.2719013126762382,0.04073946177959442,0.01179207116365433,-0.02784084342420101,0.01172426342964172,0.01128497719764709,-0.007759571075439453,XArbitraryZVertical,0.06136244786634197,-0.125335277540169,-0.7614738907450269,0.632995448522817,-0.06522151827812195,-0.2685633897781372,-0.9610514640808105,0,0,0,-1,-1,15223.454926625,unknown,2,2021-04-05 21:31:23.869 -0400,2021-04-05 19:23:45.401 -0400,693,1.413524,0,0,510.951,0,0,2021-04-05 21:31:23.868 -0400,639365507.0378988,0,-2.49,98.19706,1,0.67
2021-04-05 21:31:49.322 -0400,0,0,0,0,0,0,0,0,0,15248.90632925,-0.0589141845703125,-0.258270263671875,-0.949676513671875,15248.89625825,-1.745888080793544,-0.06741129121931473,0.2722810723083072,0.0005590496584773064,0.007240442093461752,-0.009803770110011101,0.01508932560682297,0.005150496959686279,0.008549273014068604,XArbitraryZVertical,0.0615785289096614,-0.12538703412126,-0.7616420415059234,0.6327619385532414,-0.06487869471311569,-0.2689291834831238,-0.9609723687171936,0,0,0,-1,-1,15223.454926625,unknown,2,2021-04-05 21:31:23.869 -0400,2021-04-05 19:23:45.401 -0400,693,1.413524,0,0,510.951,0,0,2021-04-05 21:31:23.868 -0400,639365507.0378988,0,-2.49,98.19706,1,0.67
2021-04-05 21:31:49.356 -0400,0,0,0,0,0,0,0,0,0,15248.94151625,-0.0617828369140625,-0.2699737548828125,-0.9546051025390625,15248.92644025,-1.745903650096914,-0.06714698497405655,0.2723241091555894,0.01164950616657734,-0.01968096196651459,-0.004810392390936613,0.005282551050186157,-0.001796573400497437,0.009745001792907715,XArbitraryZVertical,0.06169196816134625,-0.1253201688229316,-0.7616370365729132,0.6327700459295585,-0.06462392210960388,-0.2689706087112427,-0.9609779119491577,0,0,0,-1,-1,15223.454926625,unknown,2,2021-04-05 21:31:23.869 -0400,2021-04-05 19:23:45.401 -0400,693,1.413524,0,0,510.951,0,0,2021-04-05 21:31:23.868 -0400,639365507.0378988,0,-2.49,98.19706,1,0.67
2021-04-05 21:31:49.441 -0400,0,0,0,0,0,0,0,0,0,15248.97670225,-0.05816650390625,-0.275299072265625,-0.968994140625,15248.95659125,-1.746504418011859,-0.06722613303965211,0.2718952519813985,-0.03026157058775425,-0.01020967494696379,-0.01375818066298962,0.003459006547927856,0.004534721374511719,0.007520318031311035,XArbitraryZVertical,0.06148704104264305,-0.1252016128809444,-0.7618472140974137,0.6325604874022359,-0.06470772624015808,-0.2685575485229492,-0.9610878229141235,0,0,0,-1,-1,15223.454926625,unknown,2,2021-04-05 21:31:23.869 -0400,2021-04-05 19:23:45.401 -0400,693,1.413524,0,0,510.951,0,0,2021-04-05 21:31:23.868 -0400,639365507.0378988,0,-2.49,98.19706,1,0.67
2021-04-05 21:31:49.446 -0400,0,0,0,0,0,0,0,0,0,15249.01192025,-0.0544281005859375,-0.2643890380859375,-0.9659271240234375,15248.98677325,-1.747444198214114,-0.06669304830118095,0.2712180384377295,-0.01093706302344799,0.0175926610827446,-0.03539921343326569,0.003508076071739197,-0.005440771579742432,-0.009033501148223877,XArbitraryZVertical,0.06141491331061123,-0.1248058810828463,-0.7621559003866446,0.632273718262185,-0.06420747935771942,-0.2679051458835602,-0.9613034129142761,0,0,0,-1,-1,15223.454926625,unknown,2,2021-04-05 21:31:23.869 -0400,2021-04-05 19:23:45.401 -0400,693,1.413524,0,0,510.951,0,0,2021-04-05 21:31:23.868 -0400,639365507.0378988,0,-2.49,98.19706,1,0.67
2021-04-05 21:31:49.463 -0400,0,0,0,0,0,0,0,0,0,15249.04710625,-0.062469482421875,-0.2782135009765625,-0.968292236328125,15249.01695525,-1.747917076900506,-0.06600590639294346,0.2709012257718496,-0.0156431570649147,0.008225176483392715,0.007288231514394283,0.009124472737312317,0.003210872411727905,-0.004495203495025635,XArbitraryZVertical,0.06154608396233361,-0.1244833829689325,-0.7622973147467089,0.632153999696802,-0.06355250626802444,-0.2675999104976654,-0.9614319205284119,0,0,0,-1,-1,15223.454926625,unknown,2,2021-04-05 21:31:23.869 -0400,2021-04-05 19:23:45.401 -0400,693,1.413524,0,0,510.951,0,0,2021-04-05 21:31:23.868 -0400,639365507.0378988,0,-2.49,98.19706,1,0.67
2021-04-05 21:31:49.498 -0400,0,0,0,0,0,0,0,0,0,15249.08229325,-0.0669708251953125,-0.271759033203125,-0.9697418212890625,15249.07728825,-1.74729911766622,-0.06563179494479429,0.2705693349661497,-0.005413111764937639,-0.003916420973837376,0.03240004181861877,0.002117767930030823,-0.001762866973876953,-0.004367649555206299,XArbitraryZVertical,0.06162103376927511,-0.124220513870903,-0.7621041401173797,0.6324315036255694,-0.06319864094257355,-0.267280101776123,-0.9615442156791687,0,0,0,-1,-1,15223.454926625,unknown,2,2021-04-05 21:31:23.869 -0400,2021-04-05 19:23:45.401 -0400,693,1.413524,0,0,510.951,0,0,2021-04-05 21:31:23.868 -0400,639365507.0378988,0,-2.49,98.19706,1,0.67
2021-04-05 21:31:49.533 -0400,0,0,0,0,0,0,0,0,0,15249.11751125,-0.0738677978515625,-0.2772064208984375,-0.9741668701171875,15249.10744025,-1.746452861036279,-0.0659346195551444,0.2707204220187354,0.03410103172063828,-0.022493751719594,0.005689436569809914,-0.0151718333363533,-0.01126083731651306,-0.008623301982879639,XArbitraryZVertical,0.06160654310583547,-0.124347379045454,-0.7618395631424427,0.6327264880935672,-0.06348715722560883,-0.2674256861209869,-0.9614847302436829,0,0,0,-1,-1,15223.454926625,unknown,2,2021-04-05 21:31:23.869 -0400,2021-04-05 19:23:45.401 -0400,693,1.413524,0,0,510.951,0,0,2021-04-05 21:31:23.868 -0400,639365507.0378988,0,-2.49,98.19706,1,0.67
2021-04-05 21:31:49.568 -0400,0,0,0,0,0,0,0,0,0,15249.15269725,-0.066741943359375,-0.26593017578125,-0.9541473388671875,15249.13762225,-1.746799114356235,-0.0663616463622522,0.2716310561558249,0.01771636493504047,0.006712521426379681,-0.009468927048146725,-0.008109346032142639,-0.0007246434688568115,-0.004865586757659912,XArbitraryZVertical,0.06171346576163859,-0.1248374059112896,-0.761924690171097,0.6325170774447715,-0.06388155370950699,-0.2683030366897583,-0.9612141251564026,0,0,0,-1,-1,15223.454926625,unknown,2,2021-04-05 21:31:23.869 -0400,2021-04-05 19:23:45.401 -0400,693,1.413524,0,0,510.951,0,0,2021-04-05 21:31:23.868 -0400,639365507.0378988,0,-2.49,98.19706,1,0.67
2021-04-05 21:31:49.603 -0400,0,0,0,0,0,0,0,0,0,15249.18791525,-0.070404052734375,-0.2708282470703125,-0.93975830078125,15249.16777325,-1.74649478156701,-0.06593481262702332,0.2725401495896912,0.05026509612798691,0.01442862115800381,0.01838211342692375,-0.008352614939212799,0.00221097469329834,0.01484584808349609,XArbitraryZVertical,0.06218571983312011,-0.1250366682459818,-0.761777547295709,0.6326086043080236,-0.06345517188310623,-0.2691786885261536,-0.9609975218772888,0,0,0,-1,-1,15223.454926625,unknown,2,2021-04-05 21:31:23.869 -0400,2021-04-05 19:23:45.401 -0400,693,1.413524,0,0,510.951,0,0,2021-04-05 21:31:23.868 -0400,639365507.0378988,0,-2.49,98.19706,1,0.67
2021-04-05 21:31:49.638 -0400,0,0,0,0,0,0,0,0,0,15249.22310125,-0.0646209716796875,-0.2647705078125,-0.951904296875,15249.19795525,-1.74653103571247,-0.06667379152491364,0.2730178839218729,-0.03205183520913124,-0.03276976570487022,-0.03561820834875107,-0.005789488554000854,-0.004607439041137695,0.01926314830780029,XArbitraryZVertical,0.06205472902828103,-0.1254520974906297,-0.7617921305156016,0.6325216973930186,-0.06415674090385437,-0.2696387767791748,-0.9608219861984253,0,0,0,-1,-1,15223.454926625,unknown,2,2021-04-05 21:31:23.869 -0400,2021-04-05 19:23:45.401 -0400,693,1.413524,0,0,510.951,0,0,2021-04-05 21:31:23.868 -0400,639365509.6073176,0,-2.59,98.19735,1,0.67
2021-04-05 21:31:49.674 -0400,0,0,0,0,0,0,0,0,0,15249.25828825,-0.0553741455078125,-0.2688446044921875,-0.9666290283203125,15249.25828825,-1.748431665546553,-0.06756226214610984,0.2705503723569601,-0.04942939430475235,-0.04986211657524109,-0.01949071884155273,0.006980203092098236,-0.00309339165687561,-0.003113090991973877,XArbitraryZVertical,0.0608086326377188,-0.1248582090187113,-0.7625219615470529,0.6318804820815433,-0.06505509465932846,-0.2672618329524994,-0.9614254832267761,0,0,0,-1,-1,15223.454926625,unknown,2,2021-04-05 21:31:23.869 -0400,2021-04-05 19:23:45.401 -0400,693,1.413524,0,0,510.951,0,0,2021-04-05 21:31:23.868 -0400,639365509.6073176,0,-2.59,98.19735,1,0.67
2021-04-05 21:31:49.709 -0400,0,0,0,0,0,0,0,0,0,15249.293492875,-0.05303955078125,-0.26495361328125,-0.9673004150390625,15249.288457875,-1.748246611986332,-0.0693052801232201,0.269950729022894,-0.000177314504981041,-0.02856122888624668,0.03095191717147827,0.01545713841915131,0.0009674429893493652,-0.004212617874145508,XArbitraryZVertical,0.05996407356874217,-0.1251764680532898,-0.7625405571119694,0.6318757094705717,-0.06674186140298843,-0.2666839361190796,-0.9614703059196472,0,0,0,-1,-1,15223.454926625,unknown,2,2021-04-05 21:31:23.869 -0400,2021-04-05 19:23:45.401 -0400,693,1.413524,0,0,510.951,0,0,2021-04-05 21:31:23.868 -0400,639365509.6073176,0,-2.59,98.19735,1,0.67
2021-04-05 21:31:49.744 -0400,0,0,0,0,0,0,0,0,0,15249.328679875,-0.0663604736328125,-0.2694091796875,-0.9607086181640625,15249.318608875,-1.746970285251496,-0.07032452249145789,0.2696617011311339,-0.03149087354540825,-0.01730363816022873,0.03676829114556313,0.008202746510505676,-0.003965079784393311,-0.002770006656646729,XArbitraryZVertical,0.05956311777124658,-0.125351136933146,-0.7621793344603289,0.6323148401495772,-0.0677272155880928,-0.2664053738117218,-0.9614786505699158,0,0,0,-1,-1,15223.454926625,unknown,2,2021-04-05 21:31:23.869 -0400,2021-04-05 19:23:45.401 -0400,693,1.413524,0,0,510.951,0,0,2021-04-05 21:31:23.868 -0400,639365509.6073176,0,-2.59,98.19735,1,0.67
2021-04-05 21:31:49.779 -0400,0,0,0,0,0,0,0,0,0,15249.363866875,-0.0622711181640625,-0.2740325927734375,-0.9525604248046875,15249.348790875,-1.746388968189494,-0.07051112348811488,0.2682015323777892,-0.05661904066801071,-4.776939749717712e-05,0.01510134618729353,-0.002576850354671478,-0.002687215805053711,0.000823974609375,XArbitraryZVertical,0.05906134131843859,-0.1248409178465684,-0.7620596557251496,0.6326070495880728,-0.06793396174907684,-0.2649976909160614,-0.96185302734375,0,0,0,-1,-1,15223.454926625,unknown,2,2021-04-05 21:31:23.869 -0400,2021-04-05 19:23:45.401 -0400,693,1.413524,0,0,510.951,0,0,2021-04-05 21:31:23.868 -0400,639365509.6073176,0,-2.59,98.19735,1,0.67
2021-04-05 21:31:49.814 -0400,0,0,0,0,0,0,0,0,0,15249.399083875,-0.068695068359375,-0.267974853515625,-0.9527435302734375,15249.378972875,-1.746252299027989,-0.07056957451361712,0.2674398764622121,-0.03114459663629532,-0.03338956460356712,0.02363428100943565,0.00823577493429184,-0.00629037618637085,0.01356375217437744,XArbitraryZVertical,0.05880390823276015,-0.124567482097353,-0.7620485305631488,0.6326982472562346,-0.06800439208745956,-0.2642631828784943,-0.9620500802993774,0,0,0,-1,-1,15223.454926625,unknown,2,2021-04-05 21:31:23.869 -0400,2021-04-05 19:23:45.401 -0400,693,1.413524,0,0,510.951,0,0,2021-04-05 21:31:23.868 -0400,639365509.6073176,0,-2.59,98.19735,1,0.67
2021-04-05 21:31:49.849 -0400,0,0,0,0,0,0,0,0,0,15249.434270875,-0.0684051513671875,-0.2573394775390625,-0.9553070068359375,15249.409123875,-1.745816228715002,-0.07103408360980533,0.2656868875628786,-0.07719949632883072,-0.0404730997979641,0.002610372379422188,0.0001552402973175049,-0.006653934717178345,0.006012320518493652,XArbitraryZVertical,0.05809305029428682,-0.1240391026966549,-0.7619935694975667,0.6329338770494588,-0.06848403811454773,-0.2625721096992493,-0.9624789953231812,0,0,0,-1,-1,15223.454926625,unknown,2,2021-04-05 21:31:23.869 -0400,2021-04-05 19:23:45.401 -0400,693,1.413524,0,0,510.951,0,0,2021-04-05 21:31:23.868 -0400,639365509.6073176,0,-2.59,98.19735,1,0.67
2021-04-05 21:31:49.939 -0400,0,0,0,0,0,0,0,0,0,15249.469457875,-0.0625457763671875,-0.2621917724609375,-0.959075927734375,15249.469457875,-1.745246945486255,-0.07223658948989667,0.2610300958901228,-0.09395835548639297,-0.03967497125267982,0.0192113034427166,0.002590261399745941,-0.001033604145050049,0.008801579475402832,XArbitraryZVertical,0.05617903681112169,-0.122643311518789,-0.7620286496922054,0.6333363792391064,-0.06972887367010117,-0.2580758929252625,-0.9636050462722778,0,0,0,-1,-1,15223.454926625,unknown,2,2021-04-05 21:31:23.869 -0400,2021-04-05 19:23:45.401 -0400,693,1.413524,0,0,510.951,0,0,2021-04-05 21:31:23.868 -0400,639365509.6073176,0,-2.59,98.19735,1,0.67
2021-04-05 21:31:49.945 -0400,0,0,0,0,0,0,0,0,0,15249.504674875,-0.06158447265625,-0.250701904296875,-0.9618682861328125,15249.499639875,-1.744763792194107,-0.0738982055304898,0.2580415927673099,-0.1211612075567245,-0.03504011034965515,0.04183637350797653,0.00861193984746933,0.004729717969894409,0.005787134170532227,XArbitraryZVertical,0.05461811392985411,-0.1220266414970908,-0.762034845831376,0.6335843927987838,-0.07138653844594955,-0.2551874816417694,-0.9642527103424072,0,0,0,-1,-1,15223.454926625,unknown,2,2021-04-05 21:31:23.869 -0400,2021-04-05 19:23:45.401 -0400,693,1.413524,0,0,510.951,0,0,2021-04-05 21:31:23.868 -0400,639365509.6073176,0,-2.59,98.19735,1,0.67
2021-04-05 21:31:49.955 -0400,0,0,0,0,0,0,0,0,0,15249.539861875,-0.061279296875,-0.2487640380859375,-0.97833251953125,15249.529790875,-1.743485883920823,-0.07500627789310414,0.2543559273888482,-0.1316579431295395,-0.03365034982562065,0.0509619265794754,0.006835915148258209,-0.001933157444000244,-0.008421659469604492,XArbitraryZVertical,0.05309203474246035,-0.1209506064644149,-0.7617960336591453,0.6342074353773253,-0.07252494245767593,-0.2516221106052399,-0.9651044011116028,0,0,0,-1,-1,15223.454926625,unknown,2,2021-04-05 21:31:23.869 -0400,2021-04-05 19:23:45.401 -0400,693,1.413524,0,0,510.951,0,0,2021-04-05 21:31:23.868 -0400,639365509.6073176,0,-2.59,98.19735,1,0.67
2021-04-05 21:31:49.991 -0400,0,0,0,0,0,0,0,0,0,15249.575048875,-0.0643768310546875,-0.246002197265625,-0.9958953857421875,15249.559972875,-1.741968427019716,-0.07680612589462066,0.2509199835732128,-0.0999666228890419,-0.06055224686861038,0.07393939793109894,0.01538311690092087,0.001469075679779053,-0.02091151475906372,XArbitraryZVertical,0.05139540410251686,-0.1201841114026142,-0.7614854655162367,0.6348654227400422,-0.07432776689529419,-0.2482952326536179,-0.9658285975456238,0,0,0,-1,-1,15223.454926625,unknown,2,2021-04-05 21:31:23.869 -0400,2021-04-05 19:23:45.401 -0400,693,1.413524,0,0,510.951,0,0,2021-04-05 21:31:23.868 -0400,639365509.6073176,0,-2.59,98.19735,1,0.67
2021-04-05 21:31:50.025 -0400,0,0,0,0,0,0,0,0,0,15249.610265875,-0.0774078369140625,-0.244842529296875,-1.0050048828125,15249.590154875,-1.739605879971921,-0.07865231741537808,0.2488391587539046,-0.04371435940265656,-0.0564596876502037,0.0918736532330513,0.01029429584741592,0.0007040947675704956,-0.03465181589126587,XArbitraryZVertical,0.0501658904448553,-0.1199251527335468,-0.7608550553136881,0.6357678624904002,-0.07615116983652115,-0.2462790459394455,-0.9662026762962341,0,0,0,-1,-1,15223.454926625,unknown,2,2021-04-05 21:31:23.869 -0400,2021-04-05 19:23:45.401 -0400,693,1.413524,0,0,510.951,0,0,2021-04-05 21:31:23.868 -0400,639365509.6073176,0,-2.59,98.19735,1,0.67
2021-04-05 21:31:50.061 -0400,0,0,0,0,0,0,0,0,0,15249.645452875,-0.0911865234375,-0.24407958984375,-0.9897613525390625,15249.620305875,-1.736723832371527,-0.08040501723505736,0.2483915395105958,0.01952128857374191,-0.03362922742962837,0.106995552778244,0.001025430858135223,0.0003923177719116211,-0.03849166631698608,XArbitraryZVertical,0.04952845039346928,-0.1202421405421689,-0.7599973388956708,0.6367831859481705,-0.07785336673259735,-0.2458451837301254,-0.9661775231361389,0,0,0,-1,-1,15223.454926625,unknown,2,2021-04-05 21:31:23.869 -0400,2021-04-05 19:23:45.401 -0400,693,1.413524,0,0,510.951,0,0,2021-04-05 21:31:23.868 -0400,639365509.6073176,0,-2.59,98.19735,1,0.67
2021-04-05 21:31:50.096 -0400,0,0,0,0,0,0,0,0,0,15249.680638875,-0.1081390380859375,-0.243255615234375,-0.941558837890625,15249.680638875,-1.731927870982789,-0.08022561007772443,0.2516020153122842,0.09663746505975723,0.06203330308198929,0.04177287220954895,-0.03030899167060852,0.005669727921485901,0.01274776458740234,XArbitraryZVertical,0.05092189364685099,-0.121272771176735,-0.7583527490269032,0.6384363403108483,-0.0776163712143898,-0.2489558607339859,-0.9653997421264648,0,0,0,-1,-1,15223.454926625,unknown,2,2021-04-05 21:31:23.869 -0400,2021-04-05 19:23:45.401 -0400,693,1.413524,0,0,510.951,0,0,2021-04-05 21:31:23.868 -0400,639365509.6073176,0,-2.59,98.19735,1,0.67
2021-04-05 21:31:50.131 -0400,0,0,0,0,0,0,0,0,0,15249.715856875,-0.0992279052734375,-0.241363525390625,-0.911407470703125,15249.710820875,-1.73120877305734,-0.07926799670035127,0.2536335656436137,0.03788688778877258,-0.00388495484367013,-0.01312193553894758,-0.02599415928125381,0.007255345582962036,0.05595564842224121,XArbitraryZVertical,0.05198499078480801,-0.1217120702703475,-0.7580271786996526,0.6386536738801477,-0.07665164768695831,-0.2509229183197021,-0.9649674892425537,0,0,0,-1,-1,15223.454926625,unknown,2,2021-04-05 21:31:23.869 -0400,2021-04-05 19:23:45.401 -0400,693,1.413524,0,0,510.951,0,0,2021-04-05 21:31:23.868 -0400,639365509.6073176,0,-2.59,98.19735,1,0.67
2021-04-05 21:31:50.167 -0400,0,0,0,0,0,0,0,0,0,15249.751042875,-0.0863037109375,-0.2517547607421875,-0.9604644775390625,15249.740972875,-1.732559287174441,-0.08060192801818038,0.2523531027650389,-0.0815216451883316,-0.0571347177028656,-0.07518900185823441,-0.01145185530185699,-0.002880245447158813,0.0253186821937561,XArbitraryZVertical,0.05098342885268273,-0.121691321659517,-0.758537632491514,0.6381321353978393,-0.07796458899974823,-0.24968321621418,-0.9651838541030884,0,0,0,-1,-1,15223.454926625,unknown,2,2021-04-05 21:31:23.869 -0400,2021-04-05 19:23:45.401 -0400,693,1.413524,0,0,510.951,0,0,2021-04-05 21:31:23.868 -0400,639365509.6073176,0,-2.59,98.19735,1,0.67
2021-04-05 21:31:50.201 -0400,0,0,0,0,0,0,0,0,0,15249.786229875,-0.0828399658203125,-0.2425079345703125,-0.983001708984375,15249.771154875,-1.734827127870091,-0.08172833185535112,0.2499130238559347,-0.0705842450261116,-0.008328766562044621,-0.04917379841208458,-7.658451795578003e-05,0.002400800585746765,-0.002394139766693115,XArbitraryZVertical,0.04963076801439768,-0.1211896022318674,-0.7593737038702064,0.6373394403182742,-0.07910122722387314,-0.247319683432579,-0.9656997323036194,0,0,0,-1,-1,15223.454926625,unknown,2,2021-04-05 21:31:23.869 -0400,2021-04-05 19:23:45.401 -0400,693,1.413524,0,0,510.951,0,0,2021-04-05 21:31:23.868 -0400,639365509.6073176,0,-2.59,98.19735,1,0.67
2021-04-05 21:31:50.236 -0400,0,0,0,0,0,0,0,0,0,15249.821446875,-0.0940399169921875,-0.2495269775390625,-0.9579010009765625,15249.801335875,-1.735570777130835,-0.08315808474353063,0.2488854562947193,-0.02510817721486092,-0.0654856339097023,-0.02925990894436836,0.005322940647602081,-0.0008684396743774414,-0.02294635772705078,XArbitraryZVertical,0.04871133149053922,-0.1212765631564536,-0.7596808943305606,0.6370276971998955,-0.08050292730331421,-0.2463239133358002,-0.9658384323120117,0,0,0,-1,-1,15223.454926625,unknown,2,2021-04-05 21:31:23.869 -0400,2021-04-05 19:23:45.401 -0400,693,1.413524,0,0,510.951,0,0,2021-04-05 21:31:23.868 -0400,639365509.6073176,0,-2.59,98.19735,1,0.67
2021-04-05 21:31:50.272 -0400,0,0,0,0,0,0,0,0,0,15249.856633875,-0.078094482421875,-0.25311279296875,-0.97222900390625,15249.831487875,-1.735566498907429,-0.08398740431284611,0.2490035533051237,-0.005450872704386711,0.04498767852783203,0.01029419153928757,-0.009747691452503204,0.003365874290466309,-0.001130878925323486,XArbitraryZVertical,0.04843465792571391,-0.12158506550792,-0.7596956635924035,0.636972321104562,-0.08130144327878952,-0.2464383691549301,-0.965742290019989,0,0,0,-1,-1,15223.454926625,unknown,2,2021-04-05 21:31:23.869 -0400,2021-04-05 19:23:45.401 -0400,693,1.413524,0,0,510.951,0,0,2021-04-05 21:31:23.868 -0400,639365509.6073176,0,-2.59,98.19735,1,0.67
2021-04-05 21:31:50.307 -0400,0,0,0,0,0,0,0,0,0,15249.891820875,-0.0713958740234375,-0.248046875,-0.9764251708984375,15249.861669875,-1.736026556608781,-0.08320050130568589,0.2481891299334668,-0.05385274067521095,0.000848117982968688,-0.02680793590843678,0.002463705837726593,-0.007463797926902771,-0.006223320960998535,XArbitraryZVertical,0.04844309428817846,-0.1210389622175571,-0.7598506765256019,0.6368906271886401,-0.08055812865495682,-0.245648980140686,-0.9660056829452515,0,0,0,-1,-1,15223.454926625,unknown,2,2021-04-05 21:31:23.869 -0400,2021-04-05 19:23:45.401 -0400,693,1.413524,0,0,510.951,0,0,2021-04-05 21:31:23.868 -0400,639365509.6073176,0,-2.59,98.19735,1,0.67
2021-04-05 21:31:50.342 -0400,0,0,0,0,0,0,0,0,0,15249.927037875,-0.0758209228515625,-0.2403564453125,-0.9550628662109375,15249.922002875,-1.736304098651881,-0.08236612396871645,0.2475437740474621,0.005701547022908926,0.02700711973011494,-0.001119368011131883,0.001991130411624908,0.003720864653587341,0.007596909999847412,XArbitraryZVertical,0.04853532467904911,-0.1205369259799438,-0.7599406751200872,0.6368714138497882,-0.07976511120796204,-0.2450233548879623,-0.9662303328514099,0,0,0,-1,-1,15223.454926625,unknown,2,2021-04-05 21:31:23.869 -0400,2021-04-05 19:23:45.401 -0400,693,1.413524,0,0,510.951,0,0,2021-04-05 21:31:23.868 -0400,639365509.6073176,0,-2.59,98.19735,1,0.67
2021-04-05 21:31:50.439 -0400,0,0,0,0,0,0,0,0,0,15249.962224875,-0.0759735107421875,-0.2399444580078125,-0.9571990966796875,15249.952184875,-1.736317245393505,-0.08224015502563772,0.2477198357009943,0.006766699720174074,-0.01222708076238632,0.008582161739468575,0.005039684474468231,0.006271928548812866,0.008571028709411621,XArbitraryZVertical,0.04863914989289515,-0.120563436605835,-0.7599358455317504,0.6368643816059875,-0.07963985204696655,-0.2451940327882767,-0.9661973714828491,0,0,0,-1,-1,15223.454926625,unknown,2,2021-04-05 21:31:23.869 -0400,2021-04-05 19:23:45.401 -0400,693,1.413524,0,0,510.951,0,0,2021-04-05 21:31:23.868 -0400,639365509.6073176,0,-2.59,98.19735,1,0.67
2021-04-05 21:31:50.444 -0400,0,0,0,0,0,0,0,0,0,15249.997411875,-0.08184814453125,-0.2408447265625,-0.956695556640625,15249.982335875,-1.735832110457153,-0.08242512903835597,0.2480827939595288,-0.0006972085684537888,-0.008540937677025795,0.02505481243133545,0.003486841917037964,0.006333887577056885,0.01011550426483154,XArbitraryZVertical,0.04871513346630328,-0.1207472598648398,-0.7597735175379752,0.6370172451448082,-0.07981123775243759,-0.245545893907547,-0.966093897819519,0,0,0,-1,-1,15223.454926625,unknown,2,2021-04-05 21:31:23.869 -0400,2021-04-05 19:23:45.401 -0400,693,1.413524,0,0,510.951,0,0,2021-04-05 21:31:23.868 -0400,639365509.6073176,0,-2.59,98.19735,1,0.67
2021-04-05 21:31:50.450 -0400,0,0,0,0,0,0,0,0,0,15250.032628875,-0.0905609130859375,-0.2510528564453125,-0.9725189208984375,15250.012517875,-1.735223439075155,-0.08251428671851685,0.2473050060912486,-0.03932695835828781,0.005863341502845287,0.01140501163899899,-0.005887016654014587,0.001444712281227112,0.007094085216522217,XArbitraryZVertical,0.04846717141326372,-0.1204679850370401,-0.759608116744555,0.6372863384585982,-0.07991308718919754,-0.2447918504476547,-0.9662768244743347,0,0,0,-1,-1,15223.454926625,unknown,2,2021-04-05 21:31:23.869 -0400,2021-04-05 19:23:45.401 -0400,693,1.413524,0,0,510.951,0,0,2021-04-05 21:31:23.868 -0400,639365509.6073176,0,-2.59,98.19735,1,0.67
2021-04-05 21:31:50.483 -0400,0,0,0,0,0,0,0,0,0,15250.067815875,-0.087371826171875,-0.25225830078125,-0.97088623046875,15250.042668875,-1.735395737613036,-0.0824074195962157,0.2460117527216782,-0.0290612056851387,0.006135475821793079,-0.0109687028452754,-0.009748473763465881,-0.009727627038955688,-0.005796849727630615,XArbitraryZVertical,0.04808031423518577,-0.1199511165788166,-0.7597039638796315,0.6372988930694137,-0.07983581721782684,-0.2435377389192581,-0.9666000008583069,0,0,0,-1,-1,15223.454926625,unknown,2,2021-04-05 21:31:23.869 -0400,2021-04-05 19:23:45.401 -0400,693,1.413524,0,0,510.951,0,0,2021-04-05 21:31:23.868 -0400,639365509.6073176,0,-2.59,98.19735,1,0.67
2021-04-05 21:31:50.518 -0400,0,0,0,0,0,0,0,0,0,15250.103002875,-0.0907440185546875,-0.254638671875,-0.9835662841796875,15250.103002875,-1.736584191641263,-0.08136196071702877,0.243833705768656,-0.05348997190594673,0.00972752645611763,-0.04191531985998154,-0.01269978284835815,-0.01577743887901306,-0.0135340690612793,XArbitraryZVertical,0.04770440361367481,-0.1188259852050084,-0.7601303732814664,0.6370293822877995,-0.07886815816164017,-0.2414246946573257,-0.9672093391418457,0,0,0,-1,-1,15223.454926625,unknown,2,2021-04-05 21:31:23.869 -0400,2021-04-05 19:23:45.401 -0400,693,1.413524,0,0,510.951,0,0,2021-04-05 21:31:23.868 -0400,639365509.6073176,0,-2.59,98.19735,1,0.67
2021-04-05 21:31:50.554 -0400,0,0,0,0,0,0,0,0,0,15250.138219875,-0.0761871337890625,-0.2521209716796875,-1.003616333007812,15250.133184875,-1.737533653799787,-0.08191050094417544,0.2435425050489401,0.02514462918043137,-0.03347795829176903,-0.01192755810916424,0.00428549200296402,-0.009849712252616882,-0.0363803505897522,XArbitraryZVertical,0.04734562317935567,-0.1189134397870205,-0.7604554300434438,0.6366518315255255,-0.07940444350242615,-0.2411420941352844,-0.9672359824180603,0,0,0,-1,-1,15223.454926625,unknown,2,2021-04-05 21:31:23.869 -0400,2021-04-05 19:23:45.401 -0400,693,1.413524,0,0,510.951,0,0,2021-04-05 21:31:23.868 -0400,639365509.6073176,0,-2.59,98.19735,1,0.67
2021-04-05 21:31:50.588 -0400,0,0,0,0,0,0,0,0,0,15250.173406875,-0.086669921875,-0.2466888427734375,-0.9638824462890625,15250.163365875,-1.736947024506758,-0.08232422202575358,0.2460512988103669,0.0989997610449791,0.02544382400810719,0.03638533130288124,-0.002291843295097351,0.001098692417144775,-0.01518392562866211,XArbitraryZVertical,0.04803162996238173,-0.1199767801001603,-0.7601947332268861,0.6367123304035703,-0.07975460588932037,-0.2435760945081711,-0.9665970802307129,0,0,0,-1,-1,15223.454926625,unknown,2,2021-04-05 21:31:23.869 -0400,2021-04-05 19:23:45.401 -0400,693,1.413524,0,0,510.951,0,0,2021-04-05 21:31:23.868 -0400,639365509.6073176,0,-2.59,98.19735,1,0.67
2021-04-05 21:31:50.624 -0400,0,0,0,0,0,0,0,0,0,15250.208592875,-0.0934295654296875,-0.2490692138671875,-0.9492340087890625,15250.193517875,-1.73570420993859,-0.08253587559175346,0.248868154030934,0.06730058044195175,-0.01305810920894146,0.008083734661340714,-0.009865090250968933,-0.004257410764694214,0.01266074180603027,XArbitraryZVertical,0.0489340084897883,-0.1210751356179915,-0.7597087865225314,0.6370155910532886,-0.07990230619907379,-0.2463071346282959,-0.9658925533294678,0,0,0,-1,-1,15223.454926625,unknown,2,2021-04-05 21:31:23.869 -0400,2021-04-05 19:23:45.401 -0400,693,1.413524,0,0,510.951,0,0,2021-04-05 21:31:23.868 -0400,639365509.6073176,0,-2.59,98.19735,1,0.67
2021-04-05 21:31:50.659 -0400,0,0,0,0,0,0,0,0,0,15250.243810875,-0.0924530029296875,-0.2425689697265625,-0.955047607421875,15250.223699875,-1.736035048271443,-0.08293315189426631,0.2501051743545491,0.03422228246927261,-0.01328066922724247,-0.02875008061528206,-0.01333662867546082,-0.002509385347366333,0.01354521512985229,XArbitraryZVertical,0.04916181012954086,-0.1216755482090092,-0.7597816328518587,0.6367968252877707,-0.08026072382926941,-0.247505858540535,-0.9655563831329346,0,0,0,-1,-1,15223.454926625,unknown,2,2021-04-05 21:31:23.869 -0400,2021-04-05 19:23:45.401 -0400,693,1.413524,0,0,510.951,0,0,2021-04-05 21:31:23.868 -0400,639365509.6073176,0,-2.59,98.19735,1,0.67
2021-04-05 21:31:50.694 -0400,0,0,0,0,0,0,0,0,0,15250.27898566667,-0.0773468017578125,-0.233489990234375,-0.95391845703125,15250.253850875,-1.737304804048319,-0.0826263921006645,0.2509702576718575,0.01675069145858288,0.01095583848655224,-0.06811990588903427,-0.01184998452663422,0.004355907440185547,0.00996863842010498,XArbitraryZVertical,0.04947977863663346,-0.1219350726949441,-0.7601484415531556,0.6362844392197116,-0.07994682341814041,-0.2483439445495605,-0.9653671979904175,0,0,0,-1,-1,15223.454926625,unknown,2,2021-04-05 21:31:23.869 -0400,2021-04-05 19:23:45.401 -0400,693,1.413524,0,0,510.951,0,0,2021-04-05 21:31:23.868 -0400,639365509.6073176,0,-2.59,98.19735,1,0.67
2021-04-05 21:31:50.729 -0400,0,0,0,0,0,0,0,0,0,15250.31417166667,-0.0732421875,-0.239715576171875,-0.964569091796875,15250.28402066667,-1.739630740914661,-0.08234847286908342,0.2512051657716142,-0.00582223990932107,0.005768471397459507,-0.06116696074604988,0.002326980233192444,0.0150814950466156,0.01141273975372314,XArbitraryZVertical,0.04951923109393402,-0.121992816271393,-0.7608729128936514,0.6354038528387481,-0.07967372983694077,-0.2485714852809906,-0.9653311967849731,0,0,0,-1,-1,15223.454926625,unknown,2,2021-04-05 21:31:23.869 -0400,2021-04-05 19:23:45.401 -0400,693,1.413524,0,0,510.951,0,0,2021-04-05 21:31:23.868 -0400,639365509.6073176,0,-2.59,98.19735,1,0.67
2021-04-05 21:31:50.764 -0400,0,0,0,0,0,0,0,0,0,15250.34938966667,-0.0684661865234375,-0.2408447265625,-0.965240478515625,15250.34435366667,-1.742484737332624,-0.08083084455637936,0.2506267477385584,-0.03934301808476448,0.02918556518852711,-0.03983016312122345,0.009693048894405365,0.004343569278717041,-0.001721501350402832,XArbitraryZVertical,0.04973741289708751,-0.1213635678760766,-0.761761397573538,0.6344420473097984,-0.07822021842002869,-0.2480111718177795,-0.9655941724777222,0,0,0,-1,-1,15223.454926625,unknown,2,2021-04-05 21:31:23.869 -0400,2021-04-05 19:23:45.401 -0400,693,1.413524,0,0,510.951,0,0,2021-04-05 21:31:23.868 -0400,639365509.6073176,0,-2.59,98.19735,1,0.67
2021-04-05 21:31:50.799 -0400,0,0,0,0,0,0,0,0,0,15250.38457566667,-0.084320068359375,-0.2462158203125,-0.97015380859375,15250.37453566667,-1.743076884047918,-0.07990823091444298,0.2496001115016438,-0.002867019036784768,0.01736836135387421,-0.003732028650119901,0.005251877009868622,0.003211557865142822,-0.001350700855255127,XArbitraryZVertical,0.04972345043450845,-0.120697885076277,-0.7619620604969755,0.6343291100906329,-0.07734959572553635,-0.2470164895057678,-0.9659191966056824,0,0,0,-1,-1,15223.454926625,unknown,2,2021-04-05 21:31:23.869 -0400,2021-04-05 19:23:45.401 -0400,693,1.413524,0,0,510.951,0,0,2021-04-05 21:31:23.868 -0400,639365509.6073176,0,-2.59,98.19735,1,0.67
2021-04-05 21:31:50.835 -0400,0,0,0,0,0,0,0,0,0,15250.41976266667,-0.076568603515625,-0.2434844970703125,-0.967010498046875,15250.40468666667,-1.743708230288779,-0.07888218489904307,0.2496804312750486,0.002392102964222431,0.03035055473446846,-0.04837779328227043,-0.008253015577793121,-0.004614651203155518,-0.005960822105407715,XArbitraryZVertical,0.05010211573978993,-0.1204186123863809,-0.7621338586818853,0.6341459652059049,-0.0763569176197052,-0.2470943182706833,-0.9659782648086548,0,0,0,-1,-1,15223.454926625,unknown,2,2021-04-05 21:31:23.869 -0400,2021-04-05 19:23:45.401 -0400,693,1.413524,0,0,510.951,0,0,2021-04-05 21:31:23.868 -0400,639365509.6073176,0,-2.59,98.19735,1,0.67
2021-04-05 21:31:50.901 -0400,0,0,0,0,0,0,0,0,0,15250.45497966667,-0.0781097412109375,-0.2476043701171875,-0.9696197509765625,15250.43486866667,-1.745224875329715,-0.07746438312121524,0.2488784971046702,-0.02714640274643898,0.01441520266234875,-0.02508856728672981,0.002004608511924744,0.004663750529289246,0.001896858215332031,XArbitraryZVertical,0.05029435183653349,-0.1197041085079372,-0.7626071357773877,0.6336969144637282,-0.07500258833169937,-0.2463171631097794,-0.9662827849388123,0,0,0,-1,-1,15223.454926625,unknown,2,2021-04-05 21:31:23.869 -0400,2021-04-05 19:23:45.401 -0400,693,1.413524,0,0,510.951,0,0,2021-04-05 21:31:23.868 -0400,639365509.6073176,0,-2.59,98.19735,1,0.67
2021-04-05 21:31:50.945 -0400,0,0,0,0,0,0,0,0,0,15250.49016666667,-0.089599609375,-0.244171142578125,-0.962432861328125,15250.46502066667,-1.745672829535244,-0.0773169142817139,0.2484633961305304,0.009290844202041626,-0.01209525391459465,-0.006536603905260563,-0.005377933382987976,-0.002833932638168335,-0.002598404884338379,XArbitraryZVertical,0.05019076212164867,-0.1195116287937953,-0.7627599301173204,0.6335575237622427,-0.07486797869205475,-0.2459148317575455,-0.9663957357406616,0,0,0,-1,-1,15223.454926625,unknown,2,2021-04-05 21:31:23.869 -0400,2021-04-05 19:23:45.401 -0400,693,1.413524,0,0,510.951,0,0,2021-04-05 21:31:23.868 -0400,639365509.6073176,0,-2.59,98.19735,1,0.67
2021-04-05 21:31:50.950 -0400,0,0,0,0,0,0,0,0,0,15250.52538366667,-0.071044921875,-0.2452850341796875,-0.968841552734375,15250.49520266667,-1.746331647211117,-0.07716320346415546,0.2488951113712969,-0.01367356069386005,0.02677569165825844,-0.04265251383185387,-0.01488830894231796,0.002162128686904907,0.003868401050567627,XArbitraryZVertical,0.0503483118024231,-0.1196428547466982,-0.7629495311706089,0.6332918223660263,-0.07471124082803726,-0.2463332712650299,-0.9663012623786926,0,0,0,-1,-1,15223.454926625,unknown,2,2021-04-05 21:31:23.869 -0400,2021-04-05 19:23:45.401 -0400,693,1.413524,0,0,510.951,0,0,2021-04-05 21:31:23.868 -0400,639365509.6073176,0,-2.59,98.19735,1,0.67
2021-04-05 21:31:50.976 -0400,0,0,0,0,0,0,0,0,0,15250.56057066667,-0.060821533203125,-0.2446746826171875,-0.97491455078125,15250.55553566667,-1.749730255596678,-0.07572879761530937,0.2469404021196034,-0.01213225536048412,0.001182917738333344,-0.01480829901993275,0.01209740340709686,0.006019756197929382,-0.008257687091827393,XArbitraryZVertical,0.05006804051099791,-0.1185340769589325,-0.7640575662750297,0.6321857828615322,-0.07336138933897018,-0.2444383203983307,-0.9668857455253601,0,0,0,-1,-1,15223.454926625,unknown,2,2021-04-05 21:31:23.869 -0400,2021-04-05 19:23:45.401 -0400,693,1.413524,0,0,510.951,0,0,2021-04-05 21:31:23.868 -0400,639365509.6073176,0,-2.59,98.19735,1,0.67
2021-04-05 21:31:51.011 -0400,0,0,0,0,0,0,0,0,0,15250.59575766667,-0.064483642578125,-0.2466888427734375,-0.9752960205078125,15250.58571766667,-1.749770596583461,-0.07618107054668416,0.2466509168052036,-0.02181747369468212,0.004316044971346855,0.004882398527115583,0.009427279233932495,0.0004442334175109863,-0.005901157855987549,XArbitraryZVertical,0.04980032211364334,-0.1185683180339751,-0.7640917732310272,0.6321591317477391,-0.07380405813455582,-0.244157612323761,-0.9669229388237,0,0,0,-1,-1,15223.454926625,unknown,2,2021-04-05 21:31:23.869 -0400,2021-04-05 19:23:45.401 -0400,693,1.413524,0,0,510.951,0,0,2021-04-05 21:31:23.868 -0400,639365509.6073176,0,-2.59,98.19735,1,0.67
2021-04-05 21:31:51.046 -0400,0,0,0,0,0,0,0,0,0,15250.63097466667,-0.0764312744140625,-0.247222900390625,-0.97540283203125,15250.61586866667,-1.749300515489676,-0.07633040277720277,0.2462991029260026,-0.0003943955525755882,-0.001527463085949421,0.02046330645680428,0.002376079559326172,0.0004387497901916504,-0.007413506507873535,XArbitraryZVertical,0.04965864940791288,-0.1184704966742207,-0.7639591963935779,0.6323488241415753,-0.0739549919962883,-0.2438164353370667,-0.966997504234314,0,0,0,-1,-1,15223.454926625,unknown,2,2021-04-05 21:31:23.869 -0400,2021-04-05 19:23:45.401 -0400,693,1.413524,0,0,510.951,0,0,2021-04-05 21:31:23.868 -0400,639365509.6073176,0,-2.59,98.19735,1,0.67
2021-04-05 21:31:51.081 -0400,0,0,0,0,0,0,0,0,0,15250.66616166667,-0.0709686279296875,-0.2378692626953125,-0.959075927734375,15250.64605066667,-1.748976521059397,-0.07624059773071777,0.246708672880737,0.03426352888345718,-0.0115507822483778,0.004528364632278681,-0.003684565424919128,0.0008512139320373535,-0.004393696784973145,XArbitraryZVertical,0.04984313581349678,-0.1185892341901301,-0.7638401904751896,0.6324559013733606,-0.0738605409860611,-0.2442136108875275,-0.9669045209884644,0,0,0,-1,-1,15223.454926625,unknown,2,2021-04-05 21:31:23.869 -0400,2021-04-05 19:23:45.401 -0400,693,1.413524,0,0,510.951,0,0,2021-04-05 21:31:23.868 -0400,639365509.6073176,0,-2.59,98.19735,1,0.67
2021-04-05 21:31:51.116 -0400,0,0,0,0,0,0,0,0,0,15250.70134866667,-0.073089599609375,-0.230712890625,-0.965087890625,15250.67620166667,-1.748909698952773,-0.07638020013637535,0.2474761709679871,0.01204973459243774,-0.02384256012737751,-0.005503813270479441,0.00327204167842865,0.007958307862281799,0.008592426776885986,XArbitraryZVertical,0.05003925179624201,-0.1189225212954025,-0.7637956006348787,0.6324315928977844,-0.07398119568824768,-0.2449578046798706,-0.9667069911956787,0,0,0,-1,-1,15223.454926625,unknown,2,2021-04-05 21:31:23.869 -0400,2021-04-05 19:23:45.401 -0400,693,1.413524,0,0,510.951,0,0,2021-04-05 21:31:23.868 -0400,639365509.6073176,0,-2.59,98.19735,1,0.67
2021-04-05 21:31:51.153 -0400,0,0,0,0,0,0,0,0,0,15250.73656566667,-0.0641326904296875,-0.23675537109375,-0.976043701171875,15250.73656566667,-1.75004736882644,-0.07645521517093462,0.2468459756949497,0.03599012270569801,0.0003875959664583206,0.006540415808558464,0.01223694533109665,0.006263896822929382,-0.009173214435577393,XArbitraryZVertical,0.0497415172503408,-0.1187357712496426,-0.7641792424921821,0.6320267297699391,-0.07406549155712128,-0.2443467676639557,-0.9668551683425903,0,0,0,-1,-1,15223.454926625,unknown,2,2021-04-05 21:31:23.869 -0400,2021-04-05 19:23:45.401 -0400,693,1.413524,0,0,510.951,0,0,2021-04-05 21:31:23.868 -0400,639365509.6073176,0,-2.59,98.19735,1,0.67
2021-04-05 21:31:51.187 -0400,0,0,0,0,0,0,0,0,0,15250.77175266667,-0.0763397216796875,-0.2520294189453125,-0.97125244140625,15250.76671666667,-1.749813986827769,-0.07556958261518451,0.2471712174366735,-0.006038322113454342,0.04833715409040451,-0.006723874248564243,-0.0007866248488426208,-0.003903523087501526,-0.00645601749420166,XArbitraryZVertical,0.05019769024080695,-0.1185733265493477,-0.7640719229984899,0.6321509108469614,-0.0732031837105751,-0.2446621358394623,-0.9668411016464233,0,0,0,-1,-1,15223.454926625,unknown,2,2021-04-05 21:31:23.869 -0400,2021-04-05 19:23:45.401 -0400,693,1.413524,0,0,510.951,0,0,2021-04-05 21:31:23.868 -0400,639365509.6073176,0,-2.59,98.19735,1,0.67
2021-04-05 21:31:51.222 -0400,0,0,0,0,0,0,0,0,0,15250.80693966667,-0.0735626220703125,-0.2505950927734375,-0.975372314453125,15250.79689866667,-1.75050740012399,-0.07361630383095047,0.2467865862936034,0.01301017124205828,0.0570576936006546,-0.03106518276035786,-0.008192040026187897,-0.006763651967048645,-0.00617527961730957,XArbitraryZVertical,0.0507800980487787,-0.1178277016778178,-0.7642553564866966,0.6320218843066703,-0.07132145017385483,-0.2442891746759415,-0.9670760035514832,0,0,0,-1,-1,15223.454926625,unknown,2,2021-04-05 21:31:23.869 -0400,2021-04-05 19:23:45.401 -0400,693,1.413524,0,0,510.951,0,0,2021-04-05 21:31:23.868 -0400,639365509.6073176,0,-2.59,98.19735,1,0.67
2021-04-05 21:31:51.257 -0400,0,0,0,0,0,0,0,0,0,15250.84215666667,-0.069854736328125,-0.2469024658203125,-0.9676055908203125,15250.82705066667,-1.751794008365616,-0.07168964568260827,0.2468143484580045,0.004823102615773678,0.05823741480708122,-0.03801420331001282,-0.003433570265769958,-0.00760650634765625,-0.01213473081588745,XArbitraryZVertical,0.05144974803617318,-0.1172624530182059,-0.7646115858966919,0.631641882573969,-0.06945760548114777,-0.2443160861730576,-0.9672048687934875,0,0,0,-1,-1,15223.454926625,unknown,2,2021-04-05 21:31:23.869 -0400,2021-04-05 19:23:45.401 -0400,693,1.413524,0,0,510.951,0,0,2021-04-05 21:31:23.868 -0400,639365509.6073176,0,-2.59,98.19735,1,0.67
2021-04-05 21:31:51.292 -0400,0,0,0,0,0,0,0,0,0,15250.87734366667,-0.0735321044921875,-0.2494659423828125,-0.9674224853515625,15250.85723266667,-1.752367065068629,-0.06994862017198716,0.247667686353453,0.04173294082283974,0.04477228969335556,-0.004912607837468386,0.0008339881896972656,0.000590890645980835,-0.001420319080352783,XArbitraryZVertical,0.05235415910308285,-0.1170514141132171,-0.7647165720628447,0.6314796146220992,-0.06775897741317749,-0.2451434880495071,-0.9671159982681274,0,0,0,-1,-1,15223.454926625,unknown,2,2021-04-05 21:31:23.869 -0400,2021-04-05 19:23:45.401 -0400,693,1.413524,0,0,510.951,0,0,2021-04-05 21:31:23.868 -0400,639365509.6073176,0,-2.59,98.19735,1,0.67
2021-04-05 21:31:51.329 -0400,0,0,0,0,0,0,0,0,0,15250.91252966667,-0.076263427734375,-0.2412109375,-0.9618072509765625,15250.88738366667,-1.752583568657726,-0.06892253447773389,0.2490237752803773,0.03064249269664288,0.04136965051293373,-0.02479992806911469,-0.007230900228023529,-0.002443388104438782,-0.0007073283195495605,XArbitraryZVertical,0.0531664285003953,-0.1172479455530161,-0.7647083250025302,0.6313853219383899,-0.0667436420917511,-0.2464579641819,-0.9668524861335754,0,0,0,-1,-1,15223.454926625,unknown,2,2021-04-05 21:31:23.869 -0400,2021-04-05 19:23:45.401 -0400,693,1.413524,0,0,510.951,0,0,2021-04-05 21:31:23.868 -0400,639365509.6073176,0,-2.59,98.19735,1,0.67
2021-04-05 21:31:51.402 -0400,0,0,0,0,0,0,0,0,0,15250.94774766667,-0.0676422119140625,-0.23980712890625,-0.9422607421875,15250.91756566667,-1.753338896920509,-0.06711467868304173,0.2500983330361941,0.03993522748351097,0.07314120233058929,-0.03132019564509392,-0.01128556579351425,0.006288304924964905,0.004899561405181885,XArbitraryZVertical,0.05415614786780328,-0.1171055758624821,-0.764858473774508,0.6311457960047777,-0.06497780978679657,-0.2474992275238037,-0.9667068123817444,0,0,0,-1,-1,15223.454926625,unknown,2,2021-04-05 21:31:23.869 -0400,2021-04-05 19:23:45.401 -0400,693,1.413524,0,0,510.951,0,0,2021-04-05 21:31:23.868 -0400,639365509.6073176,0,-2.59,98.19735,1,0.67
2021-04-05 21:31:51.449 -0400,0,0,0,0,0,0,0,0,0,15250.98293466667,-0.062286376953125,-0.2492218017578125,-0.9580841064453125,15250.97789866667,-1.755601911458184,-0.06506877054748472,0.2510510462956085,-0.02696710824966431,0.01361010782420635,-0.05498917400836945,-0.002338297665119171,0.002908289432525635,0.01390421390533447,XArbitraryZVertical,0.05510998099744556,-0.1168841621664629,-0.765480504053473,0.6303495140598273,-0.06298451870679855,-0.2484221905469894,-0.9666019678115845,0,0,0,-1,-1,15223.454926625,unknown,2,2021-04-05 21:31:23.869 -0400,2021-04-05 19:23:45.401 -0400,693,1.413524,0,0,510.951,0,0,2021-04-05 21:31:23.868 -0400,639365509.6073176,0,-2.59,98.19735,1,0.67
2021-04-05 21:31:51.454 -0400,0,0,0,0,0,0,0,0,0,15251.01812066667,-0.0563507080078125,-0.2531890869140625,-0.978424072265625,15251.00808066667,-1.756662859410222,-0.06488458178963764,0.2508269441167492,0.006660894956439734,0.01119793951511383,-0.02131576463580132,0.005147181451320648,0.0008754134178161621,0.001764297485351562,XArbitraryZVertical,0.0550472099172466,-0.1167701315225328,-0.765818195599367,0.6299658807171135,-0.06281008571386337,-0.2482051104307175,-0.9666690826416016,0,0,0,-1,-1,15223.454926625,unknown,2,2021-04-05 21:31:23.869 -0400,2021-04-05 19:23:45.401 -0400,693,1.413524,0,0,510.951,0,0,2021-04-05 21:31:23.868 -0400,639365509.6073176,0,-2.59,98.19735,1,0.67
2021-04-05 21:31:51.469 -0400,0,0,0,0,0,0,0,0,0,15251.05333866667,-0.054473876953125,-0.2479705810546875,-0.991790771484375,15251.03823166667,-1.757824728038409,-0.06448482686157789,0.2503088624841874,-0.03042690828442574,0.02076477371156216,-0.05425840243697166,0.003990828990936279,-0.009697288274765015,-0.02159625291824341,XArbitraryZVertical,0.05496781992736408,-0.116479115969974,-0.7661926606895871,0.629571271686457,-0.0624319314956665,-0.2477032095193863,-0.9668223261833191,0,0,0,-1,-1,15223.454926625,unknown,2,2021-04-05 21:31:23.869 -0400,2021-04-05 19:23:45.401 -0400,693,1.413524,0,0,510.951,0,0,2021-04-05 21:31:23.868 -0400,639365509.6073176,0,-2.59,98.19735,1,0.67
2021-04-05 21:31:51.504 -0400,0,0,0,0,0,0,0,0,0,15251.08852466667,-0.0472259521484375,-0.2476043701171875,-0.979766845703125,15251.06841366667,-1.758996247592157,-0.06323500195423838,0.2506221466148999,0.04242543876171112,0.03780640289187431,-0.01921409927308559,0.01155131310224533,0.001958757638931274,-0.02525860071182251,XArbitraryZVertical,0.05547811347248676,-0.1162374094888353,-0.7665149125921328,0.6291787607750734,-0.06121861562132835,-0.2480067163705826,-0.96682208776474,0,0,0,-1,-1,15223.454926625,unknown,2,2021-04-05 21:31:23.869 -0400,2021-04-05 19:23:45.401 -0400,693,1.413524,0,0,510.951,0,0,2021-04-05 21:31:23.868 -0400,639365509.6073176,0,-2.59,98.19735,1,0.67
2021-04-05 21:31:51.539 -0400,0,0,0,0,0,0,0,0,0,15251.12371166667,-0.0483245849609375,-0.2447662353515625,-0.971221923828125,15251.09859566667,-1.759175842834901,-0.06197726153844717,0.2522043191468736,0.05429109930992126,0.02688977681100368,-0.00368053000420332,0.01241658627986908,0.002377301454544067,-0.009675562381744385,XArbitraryZVertical,0.05645217991042695,-0.1164491921217039,-0.7664754960903132,0.6291009857218447,-0.0599781796336174,-0.2495391517877579,-0.9665054678916931,0,0,0,-1,-1,15223.454926625,unknown,2,2021-04-05 21:31:23.869 -0400,2021-04-05 19:23:45.401 -0400,693,1.413524,0,0,510.951,0,0,2021-04-05 21:31:23.868 -0400,639365509.6073176,0,-2.59,98.19735,1,0.67
2021-04-05 21:31:51.575 -0400,0,0,0,0,0,0,0,0,0,15251.15892866667,-0.053619384765625,-0.2421875,-0.9560089111328125,15251.15892866667,-1.758737337722151,-0.0596992280821653,0.2548861197942789,0.05621404200792313,0.05676894634962082,0.02646510675549507,0.005215462297201157,0.007323235273361206,0.005625724792480469,XArbitraryZVertical,0.05820221345310045,-0.1167409558920432,-0.7661674963608047,0.6292626445011699,-0.05773615837097168,-0.2521352171897888,-0.965968132019043,0,0,0,-1,-1,15223.454926625,unknown,2,2021-04-05 21:31:23.869 -0400,2021-04-05 19:23:45.401 -0400,693,1.413524,0,0,510.951,0,0,2021-04-05 21:31:23.868 -0400,639365509.6073176,0,-2.59,98.19735,1,0.67
2021-04-05 21:31:51.609 -0400,0,0,0,0,0,0,0,0,0,15251.19411566667,-0.0634307861328125,-0.24700927734375,-0.9551849365234375,15251.18908066667,-1.758165843110861,-0.05845485515627845,0.2554207517800866,-0.006450857035815716,-0.0006195097230374813,0.001618694514036179,-0.001991197466850281,0.006802916526794434,0.01035332679748535,XArbitraryZVertical,0.05888196202132075,-0.1165361239617903,-0.7659300323254983,0.6295263898956019,-0.05652620643377304,-0.2526525259017944,-0.9659044742584229,0,0,0,-1,-1,15223.454926625,unknown,2,2021-04-05 21:31:23.869 -0400,2021-04-05 19:23:45.401 -0400,693,1.413524,0,0,510.951,0,0,2021-04-05 21:31:23.868 -0400,639365509.6073176,0,-2.59,98.19735,1,0.67
2021-04-05 21:31:51.644 -0400,0,0,0,0,0,0,0,0,0,15251.22930266667,-0.06036376953125,-0.253662109375,-0.956146240234375,15251.21926266667,-1.758178740719404,-0.05802699922415874,0.2548415032726699,-0.0006383191794157028,0.01782234758138657,0.008134568110108376,-0.005386710166931152,0.005372703075408936,0.007456362247467041,XArbitraryZVertical,0.05886108117453347,-0.1161813597681042,-0.7659445276845481,0.6295762756609783,-0.05612140893936157,-0.252092033624649,-0.966074526309967,0,0,0,-1,-1,15223.454926625,unknown,2,2021-04-05 21:31:23.869 -0400,2021-04-05 19:23:45.401 -0400,693,1.413524,0,0,510.951,0,0,2021-04-05 21:31:23.868 -0400,639365509.6073176,0,-2.59,98.19735,1,0.67
2021-04-05 21:31:51.680 -0400,0,0,0,0,0,0,0,0,0,15251.26451966667,-0.05194091796875,-0.256195068359375,-0.95477294921875,15251.24941366667,-1.757906349653848,-0.05756947766679584,0.2544164942448183,-0.02279205620288849,-0.002972821705043316,0.01074647903442383,-0.0008024051785469055,-0.002103447914123535,0.01326507329940796,XArbitraryZVertical,0.05891708838698442,-0.1158675318004048,-0.765862189093294,0.6297290612512928,-0.05568556487560272,-0.2516807317733765,-0.966206967830658,0,0,0,-1,-1,15223.454926625,unknown,2,2021-04-05 21:31:23.869 -0400,2021-04-05 19:23:45.401 -0400,693,1.413524,0,0,510.951,0,0,2021-04-05 21:31:23.868 -0400,639365509.6073176,0,-2.59,98.19735,1,0.67
2021-04-05 21:31:51.715 -0400,0,0,0,0,0,0,0,0,0,15251.299707875,-0.0462646484375,-0.26434326171875,-0.9791717529296875,15251.279596875,-1.757690519928957,-0.05830985712391525,0.2529606484748524,-0.05622512847185135,-0.02229143306612968,0.009665984660387039,0.00515272468328476,-0.008471786975860596,0.005852162837982178,XArbitraryZVertical,0.05818350847540316,-0.1155402830657892,-0.7658734210157976,0.6298435592232308,-0.05642220005393028,-0.2502714693546295,-0.9665302634239197,0,0,0,-1,-1,15223.454926625,unknown,2,2021-04-05 21:31:23.869 -0400,2021-04-05 19:23:45.401 -0400,693,1.413524,0,0,510.951,0,0,2021-04-05 21:31:23.868 -0400,639365509.6073176,0,-2.59,98.19735,1,0.67
2021-04-05 21:31:51.750 -0400,0,0,0,0,0,0,0,0,0,15251.334894875,-0.0428314208984375,-0.2513885498046875,-0.977874755859375,15251.309778875,-1.757543276986495,-0.05922351629100892,0.2512512903713462,-0.04792235419154167,-0.02362186647951603,0.01095566991716623,0.01291221380233765,-0.01444534957408905,-0.0134427547454834,XArbitraryZVertical,0.05729890324696496,-0.1151732135928727,-0.7659202316190062,0.629934982042066,-0.05733049288392067,-0.2486161589622498,-0.9669039249420166,0,0,0,-1,-1,15223.454926625,unknown,2,2021-04-05 21:31:23.869 -0400,2021-04-05 19:23:45.401 -0400,693,1.413524,0,0,510.951,0,0,2021-04-05 21:31:23.868 -0400,639365509.6073176,0,-2.59,98.19735,1,0.67
2021-04-05 21:31:51.786 -0400,0,0,0,0,0,0,0,0,0,15251.370111875,-0.0506744384765625,-0.2513580322265625,-0.982879638671875,15251.370111875,-1.755511649034358,-0.06065459784564226,0.2511509582462781,0.01714471727609634,-0.006694425828754902,0.02758929319679737,0.009185701608657837,-0.005539864301681519,-0.0177428126335144,XArbitraryZVertical,0.05683633826127663,-0.1155280606470512,-0.7653247034294856,0.6306354136229115,-0.05871566385030746,-0.2485189735889435,-0.9668458104133606,0,0,0,-1,-1,15223.454926625,unknown,2,2021-04-05 21:31:23.869 -0400,2021-04-05 19:23:45.401 -0400,693,1.413524,0,0,510.951,0,0,2021-04-05 21:31:23.868 -0400,639365509.6073176,0,-2.59,98.19735,1,0.67
2021-04-05 21:31:51.820 -0400,0,0,0,0,0,0,0,0,0,15251.405298875,-0.043060302734375,-0.246246337890625,-0.9705657958984375,15251.400262875,-1.754667543822762,-0.06038638411654325,0.2519116580503994,0.0240311399102211,0.01189531944692135,0.03936375677585602,0.01189040392637253,0.002444833517074585,-0.01037824153900146,XArbitraryZVertical,0.0572298886998672,-0.1157085890778438,-0.7650214439994938,0.6309345792751762,-0.05844491720199585,-0.2492557317018509,-0.9666725397109985,0,0,0,-1,-1,15223.454926625,unknown,2,2021-04-05 21:31:23.869 -0400,2021-04-05 19:23:45.401 -0400,693,1.413524,0,0,510.951,0,0,2021-04-05 21:31:23.868 -0400,639365509.6073176,0,-2.59,98.19735,1,0.67
2021-04-05 21:31:51.855 -0400,0,0,0,0,0,0,0,0,0,15251.440485875,-0.055755615234375,-0.242095947265625,-0.9601898193359375,15251.430444875,-1.753320329323552,-0.06004558252978245,0.2530442869376548,0.02943623811006546,-0.0006908406503498554,0.03466103598475456,0.006966345012187958,0.005403131246566772,0.008890450000762939,XArbitraryZVertical,0.05779899206240535,-0.1159926463420878,-0.7645425107240618,0.6314109898243399,-0.05809849128127098,-0.2503524422645569,-0.9664099812507629,0,0,0,-1,-1,15223.454926625,unknown,2,2021-04-05 21:31:23.869 -0400,2021-04-05 19:23:45.401 -0400,693,1.413524,0,0,510.951,0,0,2021-04-05 21:31:23.868 -0400,639365509.6073176,0,-2.59,98.19735,1,0.67
2021-04-05 21:31:51.937 -0400,0,0,0,0,0,0,0,0,0,15251.475702875,-0.05712890625,-0.2412261962890625,-0.9666900634765625,15251.460596875,-1.752631250685977,-0.06004716340338296,0.2528377070109279,-0.01694586500525475,-0.001998167019337416,0.02247500792145729,0.002164460718631744,0.005737185478210449,0.001465141773223877,XArbitraryZVertical,0.05777250162400981,-0.1158947768944898,-0.7643330036209866,0.6316849808276441,-0.05810312181711197,-0.2501524388790131,-0.9664614796638489,0,0,0,-1,-1,15223.454926625,unknown,2,2021-04-05 21:31:23.869 -0400,2021-04-05 19:23:45.401 -0400,693,1.413524,0,0,510.951,0,0,2021-04-05 21:31:23.868 -0400,639365509.6073176,0,-2.59,98.19735,1,0.67
2021-04-05 21:31:51.943 -0400,0,0,0,0,0,0,0,0,0,15251.510889875,-0.06317138671875,-0.2449188232421875,-0.94793701171875,15251.490778875,-1.751652788660325,-0.05972970821052063,0.2530945278534247,0.03468967974185944,0.01210275944322348,0.05024385452270508,0.003440722823143005,0.006718248128890991,0.003235161304473877,XArbitraryZVertical,0.05803236639910099,-0.1158636781723639,-0.7640046688924169,0.6320637840422229,-0.05779247358441353,-0.250401109457016,-0.9664157032966614,0,0,0,-1,-1,15223.454926625,unknown,2,2021-04-05 21:31:23.869 -0400,2021-04-05 19:23:45.401 -0400,693,1.413524,0,0,510.951,0,0,2021-04-05 21:31:23.868 -0400,639365509.6073176,0,-2.59,98.19735,1,0.67
2021-04-05 21:31:51.962 -0400,0,0,0,0,0,0,0,0,0,15251.546075875,-0.06658935546875,-0.2539520263671875,-0.9732208251953125,15251.520959875,-1.749980946231849,-0.05983241895580249,0.2536344988921818,0.005300075747072697,-0.01070742029696703,0.04422407597303391,-0.007179770618677139,0.006630659103393555,0.0182308554649353,XArbitraryZVertical,0.05826237098507337,-0.1160524392480367,-0.7634579944971255,0.6326682409175824,-0.05788363888859749,-0.2509238421916962,-0.9662746787071228,0,0,0,-1,-1,15223.454926625,unknown,2,2021-04-05 21:31:23.869 -0400,2021-04-05 19:23:45.401 -0400,693,1.413524,0,0,510.951,0,0,2021-04-05 21:31:23.868 -0400,639365509.6073176,0,-2.59,98.19735,1,0.67
2021-04-05 21:31:51.997 -0400,0,0,0,0,0,0,0,0,0,15251.581293875,-0.0521392822265625,-0.2425384521484375,-0.974334716796875,15251.551111875,-1.749738895538805,-0.06004910977583902,0.2522586655697391,-0.062069121748209,0.0004735547117888927,-0.02097361721098423,-0.008475616574287415,-0.00436025857925415,-0.006615042686462402,XArbitraryZVertical,0.05775440655373068,-0.1155921152787646,-0.7634411610354026,0.6328194021766999,-0.05811368301510811,-0.2495917826890945,-0.9666057825088501,0,0,0,-1,-1,15223.454926625,unknown,2,2021-04-05 21:31:23.869 -0400,2021-04-05 19:23:45.401 -0400,693,1.413524,0,0,510.951,0,0,2021-04-05 21:31:23.868 -0400,639365509.6073176,0,-2.59,98.19735,1,0.67
2021-04-05 21:31:52.032 -0400,0,0,0,0,0,0,0,0,0,15251.616479875,-0.062469482421875,-0.2521514892578125,-0.9723968505859375,15251.611444875,-1.748977627860507,-0.06001829493475243,0.250952176681057,0.008936155587434769,-0.0006329887546598911,0.0248727835714817,-0.003831963986158371,0.00124087929725647,-0.01001167297363281,XArbitraryZVertical,0.05739279059200951,-0.1150649410142271,-0.7632497338242266,0.633179279339203,-0.05810340866446495,-0.2483264207839966,-0.9669322371482849,0,0,0,-1,-1,15223.454926625,unknown,2,2021-04-05 21:31:23.869 -0400,2021-04-05 19:23:45.401 -0400,693,1.413524,0,0,510.951,0,0,2021-04-05 21:31:23.868 -0400,639365509.6073176,0,-2.59,98.19735,1,0.67
2021-04-05 21:31:52.067 -0400,0,0,0,0,0,0,0,0,0,15251.651666875,-0.0555267333984375,-0.25048828125,-0.9609375,15251.641626875,-1.748302355906656,-0.0598623655211149,0.2512054684614198,0.002863382920622826,0.03395573794841766,0.02056127600371838,-0.0006143003702163696,-0.002069085836410522,0.00128704309463501,XArbitraryZVertical,0.05757207885152073,-0.1150921916597617,-0.7630216850058377,0.6334328897995326,-0.05794886872172356,-0.2485717684030533,-0.9668784737586975,0,0,0,-1,-1,15223.454926625,unknown,2,2021-04-05 21:31:23.869 -0400,2021-04-05 19:23:45.401 -0400,693,1.413524,0,0,510.951,0,0,2021-04-05 21:31:23.868 -0400,639365509.6073176,0,-2.59,98.19735,1,0.67
2021-04-05 21:31:52.103 -0400,0,0,0,0,0,0,0,0,0,15251.686883875,-0.061248779296875,-0.258148193359375,-0.975982666015625,15251.671808875,-1.747576697564348,-0.05936550139419544,0.2506020604431201,-0.02099274843931198,-0.005469535477459431,0.0296853668987751,0.0004858300089836121,-0.005476474761962891,0.001419484615325928,XArbitraryZVertical,0.05761040486112646,-0.1146851752273341,-0.7628006884819994,0.6337691702913459,-0.05747734382748604,-0.2479872554540634,-0.9670566916465759,0,0,0,-1,-1,15223.454926625,unknown,2,2021-04-05 21:31:23.869 -0400,2021-04-05 19:23:45.401 -0400,693,1.413524,0,0,510.951,0,0,2021-04-05 21:31:23.868 -0400,639365509.6073176,0,-2.59,98.19735,1,0.67
2021-04-05 21:31:52.137 -0400,0,0,0,0,0,0,0,0,0,15251.722070875,-0.0617828369140625,-0.2490081787109375,-0.981170654296875,15251.701959875,-1.746903250513699,-0.06020813757642397,0.2501897485070416,0.003943161573261023,-0.02781941927969456,0.02142727002501488,-0.001744925975799561,-0.01059089601039886,-0.01378607749938965,XArbitraryZVertical,0.05719583357113037,-0.1147766626949523,-0.7626272320373709,0.6339988667863012,-0.05829834938049316,-0.2475878000259399,-0.9671099185943604,0,0,0,-1,-1,15223.454926625,unknown,2,2021-04-05 21:31:23.869 -0400,2021-04-05 19:23:45.401 -0400,693,1.413524,0,0,510.951,0,0,2021-04-05 21:31:23.868 -0400,639365509.6073176,0,-2.59,98.19735,1,0.67
2021-04-05 21:31:52.172 -0400,0,0,0,0,0,0,0,0,0,15251.757257875,-0.0613861083984375,-0.24969482421875,-0.9732513427734375,15251.732141875,-1.746080372984059,-0.06078420952686159,0.2506521229839196,0.01776007376611233,-0.008107969537377357,0.03056612238287926,-0.003544621169567108,-0.00204053521156311,-0.01622301340103149,XArbitraryZVertical,0.05717144567421897,-0.1151109274171688,-0.7623651497288414,0.6342557633134108,-0.05884850397706032,-0.2480357587337494,-0.9669618010520935,0,0,0,-1,-1,15223.454926625,unknown,2,2021-04-05 21:31:23.869 -0400,2021-04-05 19:23:45.401 -0400,693,1.413524,0,0,510.951,0,0,2021-04-05 21:31:23.868 -0400,639365509.6073176,0,-2.59,98.19735,1,0.67
2021-04-05 21:31:52.208 -0400,0,0,0,0,0,0,0,0,0,15251.792474875,-0.067626953125,-0.2578887939453125,-0.967193603515625,15251.792474875,-1.743856253418396,-0.06150901716145019,0.2530421968707199,0.01762326620519161,0.009966760873794556,0.008172350935637951,-0.009151753038167953,-0.004761219024658203,-0.001372694969177246,XArbitraryZVertical,0.05778929658462335,-0.1161816952455177,-0.7615886574212377,0.6349368648533172,-0.05951273813843727,-0.2503504455089569,-0.9663244485855103,0,0,0,-1,-1,15223.454926625,unknown,2,2021-04-05 21:31:23.869 -0400,2021-04-05 19:23:45.401 -0400,693,1.413524,0,0,510.951,0,0,2021-04-05 21:31:23.868 -0400,639365512.1812072,0,-2.58,98.19712,1,0.67
2021-04-05 21:31:52.243 -0400,0,0,0,0,0,0,0,0,0,15251.827661875,-0.0583648681640625,-0.2468414306640625,-0.9453582763671875,15251.822626875,-1.743522862037711,-0.06126901916102217,0.2539003266516844,0.03224095702171326,0.009784272871911526,0.02118568681180477,-0.00127917155623436,0.005819857120513916,0.01850736141204834,XArbitraryZVertical,0.05817506644041661,-0.1164204183737173,-0.7614427672971263,0.6350329809896347,-0.05926764383912086,-0.2511811554431915,-0.9661238789558411,0,0,0,-1,-1,15223.454926625,unknown,2,2021-04-05 21:31:23.869 -0400,2021-04-05 19:23:45.401 -0400,693,1.413524,0,0,510.951,0,0,2021-04-05 21:31:23.868 -0400,639365512.1812072,0,-2.58,98.19712,1,0.67
2021-04-05 21:31:52.278 -0400,0,0,0,0,0,0,0,0,0,15251.862878875,-0.060211181640625,-0.251373291015625,-0.9528045654296875,15251.852808875,-1.742910415927532,-0.06175985092946837,0.2540494315872442,-0.0005154144018888474,-0.02252327278256416,0.00988912396132946,0.0003523826599121094,-6.306171417236328e-05,0.01752519607543945,XArbitraryZVertical,0.0580716971968528,-0.116614869732798,-0.7612567863348425,0.6352297785827374,-0.05973953008651733,-0.2513254582881927,-0.966057300567627,0,0,0,-1,-1,15223.454926625,unknown,2,2021-04-05 21:31:23.869 -0400,2021-04-05 19:23:45.401 -0400,693,1.413524,0,0,510.951,0,0,2021-04-05 21:31:23.868 -0400,639365512.1812072,0,-2.58,98.19712,1,0.67
2021-04-05 21:31:52.313 -0400,0,0,0,0,0,0,0,0,0,15251.898065875,-0.0469970703125,-0.24554443359375,-0.974884033203125,15251.882989875,-1.742875758728991,-0.0623716071314299,0.2539047878490342,-0.02850691229104996,-0.007413704413920641,0.005419325083494186,0.005965769290924072,0.002970755100250244,0.00754547119140625,XArbitraryZVertical,0.05779448517329083,-0.1167534912681806,-0.7612690614508562,0.6352147554050402,-0.0603327751159668,-0.2511854469776154,-0.9660568237304688,0,0,0,-1,-1,15223.454926625,unknown,2,2021-04-05 21:31:23.869 -0400,2021-04-05 19:23:45.401 -0400,693,1.413524,0,0,510.951,0,0,2021-04-05 21:31:23.868 -0400,639365512.1812072,0,-2.58,98.19712,1,0.67
2021-04-05 21:31:52.348 -0400,0,0,0,0,0,0,0,0,0,15251.933252875,-0.0534820556640625,-0.2517852783203125,-0.9873199462890625,15251.913141875,-1.742339376756903,-0.06292630869681722,0.2529330605893333,-0.01692511513829231,-0.01468380726873875,0.03125149011611938,0.009553447365760803,0.003174483776092529,-0.01658272743225098,XArbitraryZVertical,0.05730302146931131,-0.1165469006151223,-0.7611518702084491,0.635437584464327,-0.06088395789265633,-0.2502447664737701,-0.966266393661499,0,0,0,-1,-1,15223.454926625,unknown,2,2021-04-05 21:31:23.869 -0400,2021-04-05 19:23:45.401 -0400,693,1.413524,0,0,510.951,0,0,2021-04-05 21:31:23.868 -0400,639365512.1812072,0,-2.58,98.19712,1,0.67
2021-04-05 21:31:52.403 -0400,0,0,0,0,0,0,0,0,0,15251.968469875,-0.062469482421875,-0.256927490234375,-0.9710540771484375,15251.943323875,-1.741049996591523,-0.06335695778516302,0.2536797207890808,0.03839301317930222,0.01333135738968849,0.05219516903162003,0.00759260356426239,-0.001733183860778809,-0.0189778208732605,XArbitraryZVertical,0.05745402047007894,-0.1169289339856955,-0.7607259139540991,0.6358637957642282,-0.06128822639584541,-0.2509675920009613,-0.966053307056427,0,0,0,-1,-1,15223.454926625,unknown,2,2021-04-05 21:31:23.869 -0400,2021-04-05 19:23:45.401 -0400,693,1.413524,0,0,510.951,0,0,2021-04-05 21:31:23.868 -0400,639365512.1812072,0,-2.58,98.19712,1,0.67
2021-04-05 21:31:52.449 -0400,0,0,0,0,0,0,0,0,0,15252.003656875,-0.0682373046875,-0.2559051513671875,-0.961944580078125,15251.973474875,-1.73956001200969,-0.0626919066947062,0.2545219266605216,0.02284774370491505,0.02750609442591667,0.04253954440355301,-0.00183694064617157,-0.005144715309143066,-0.005171537399291992,XArbitraryZVertical,0.05806448416420831,-0.1169924262924391,-0.7602005084611084,0.6364248555678401,-0.06063247472047806,-0.2517827749252319,-0.9658825993537903,0,0,0,-1,-1,15223.454926625,unknown,2,2021-04-05 21:31:23.869 -0400,2021-04-05 19:23:45.401 -0400,693,1.413524,0,0,510.951,0,0,2021-04-05 21:31:23.868 -0400,639365512.1812072,0,-2.58,98.19712,1,0.67
2021-04-05 21:31:52.455 -0400,0,0,0,0,0,0,0,0,0,15252.038843875,-0.0766143798828125,-0.259796142578125,-0.9602508544921875,15252.033807875,-1.737511742823847,-0.06153490557707824,0.2555592181824373,0.01233524829149246,0.02371731586754322,0.0158415213227272,-0.0149640217423439,-0.005102276802062988,0.005165338516235352,XArbitraryZVertical,0.05895725476003622,-0.1169555644209368,-0.7594744072365965,0.6372157969063651,-0.05949881300330162,-0.2527865171432495,-0.9656908512115479,0,0,0,-1,-1,15223.454926625,unknown,2,2021-04-05 21:31:23.869 -0400,2021-04-05 19:23:45.401 -0400,693,1.413524,0,0,510.951,0,0,2021-04-05 21:31:23.868 -0400,639365512.1812072,0,-2.58,98.19712,1,0.67
2021-04-05 21:31:52.489 -0400,0,0,0,0,0,0,0,0,0,15252.074060875,-0.070953369140625,-0.2553863525390625,-0.9591217041015625,15252.063989875,-1.737485698432551,-0.06114955021589321,0.2557235195558044,-0.003997874911874533,0.01102417893707752,-0.006207253783941269,-0.01337031275033951,-0.004775464534759521,0.00581812858581543,XArbitraryZVertical,0.05915795400522788,-0.1168939717947035,-0.7594483654871097,0.637239704335865,-0.05912413820624352,-0.2529454529285431,-0.9656722545623779,0,0,0,-1,-1,15223.454926625,unknown,2,2021-04-05 21:31:23.869 -0400,2021-04-05 19:23:45.401 -0400,693,1.413524,0,0,510.951,0,0,2021-04-05 21:31:23.868 -0400,639365512.1812072,0,-2.58,98.19712,1,0.67
2021-04-05 21:31:52.525 -0400,0,0,0,0,0,0,0,0,0,15252.109247875,-0.0610809326171875,-0.249267578125,-0.9597625732421875,15252.094171875,-1.737580900311618,-0.06163144829412042,0.2558309761986375,0.01008553057909012,-0.01660623773932457,-0.002632542746141553,-0.008771501481533051,0.00143200159072876,0.003473579883575439,XArbitraryZVertical,0.05900395005051589,-0.1170908478743714,-0.7594887613930907,0.6371697192213487,-0.05958781018853188,-0.2530494332313538,-0.9656165242195129,0,0,0,-1,-1,15223.454926625,unknown,2,2021-04-05 21:31:23.869 -0400,2021-04-05 19:23:45.401 -0400,693,1.413524,0,0,510.951,0,0,2021-04-05 21:31:23.868 -0400,639365512.1812072,0,-2.58,98.19712,1,0.67
2021-04-05 21:31:52.559 -0400,0,0,0,0,0,0,0,0,0,15252.144434875,-0.0565185546875,-0.2509765625,-0.971527099609375,15252.124322875,-1.737771360969995,-0.0626617111799604,0.2559258599485675,0.01118446327745914,-0.04682328552007675,-0.005007450003176928,0.009738892316818237,-0.006639659404754639,-0.003310918807983398,XArbitraryZVertical,0.05863203287507098,-0.1174604380443615,-0.759576050602555,0.6370318932714203,-0.06058111414313316,-0.2531412243843079,-0.9655306339263916,0,0,0,-1,-1,15223.454926625,unknown,2,2021-04-05 21:31:23.869 -0400,2021-04-05 19:23:45.401 -0400,693,1.413524,0,0,510.951,0,0,2021-04-05 21:31:23.868 -0400,639365512.1812072,0,-2.58,98.19712,1,0.67
2021-04-05 21:31:52.595 -0400,0,0,0,0,0,0,0,0,0,15252.179651875,-0.0561676025390625,-0.25286865234375,-0.9709930419921875,15252.154504875,-1.737552926921824,-0.06362995205424793,0.2560036007246513,0.00340635608881712,-0.02002522721886635,0.004246418830007315,0.004828356206417084,-0.001956284046173096,-0.004885017871856689,XArbitraryZVertical,0.05830216064978375,-0.1177917940296299,-0.759531769352117,0.6370536591325663,-0.06151470169425011,-0.253216415643692,-0.9654518961906433,0,0,0,-1,-1,15223.454926625,unknown,2,2021-04-05 21:31:23.869 -0400,2021-04-05 19:23:45.401 -0400,693,1.413524,0,0,510.951,0,0,2021-04-05 21:31:23.868 -0400,639365512.1812072,0,-2.58,98.19712,1,0.67
2021-04-05 21:31:52.631 -0400,0,0,0,0,0,0,0,0,0,15252.214838875,-0.05816650390625,-0.2548370361328125,-0.9618682861328125,15252.214838875,-1.736657624848138,-0.06428769643181392,0.2567715413225747,0.03395595401525497,0.01456370390951633,0.02016761153936386,0.004047054797410965,-0.001366019248962402,-0.0001456141471862793,XArbitraryZVertical,0.0583523138013718,-0.1182647833105627,-0.7592361303854505,0.6373138416087483,-0.06213719770312309,-0.2539592683315277,-0.9652168750762939,0,0,0,-1,-1,15223.454926625,unknown,2,2021-04-05 21:31:23.869 -0400,2021-04-05 19:23:45.401 -0400,693,1.413524,0,0,510.951,0,0,2021-04-05 21:31:23.868 -0400,639365512.1812072,0,-2.58,98.19712,1,0.67
2021-04-05 21:31:52.666 -0400,0,0,0,0,0,0,0,0,0,15252.250024875,-0.0590972900390625,-0.2543182373046875,-0.9564361572265625,15252.245019875,-1.736143518582616,-0.06386611291634625,0.2575385745045338,-0.0002826652489602566,0.01274812594056129,0.003836242482066154,0.004146475344896317,0.0004133880138397217,0.01367813348770142,XArbitraryZVertical,0.05878960851040377,-0.1184044776866833,-0.7590302969879893,0.6374928219492081,-0.06171781942248344,-0.2547010779380798,-0.9650483131408691,0,0,0,-1,-1,15223.454926625,unknown,2,2021-04-05 21:31:23.869 -0400,2021-04-05 19:23:45.401 -0400,693,1.413524,0,0,510.951,0,0,2021-04-05 21:31:23.868 -0400,639365512.1812072,0,-2.58,98.19712,1,0.67
2021-04-05 21:31:52.700 -0400,0,0,0,0,0,0,0,0,0,15252.285262875,-0.0536956787109375,-0.2501983642578125,-0.9539642333984375,15252.275191875,-1.736462579452309,-0.0632387303853187,0.2571709014816767,0.002844008151441813,0.01140845194458961,-0.0124036967754364,0.005072794854640961,-0.004153609275817871,0.008805155754089355,XArbitraryZVertical,0.05889053506193286,-0.1180753043681871,-0.7591277954521941,0.6374286053820573,-0.06111826747655869,-0.2543455064296722,-0.9651802778244019,0,0,0,-1,-1,15223.454926625,unknown,2,2021-04-05 21:31:23.869 -0400,2021-04-05 19:23:45.401 -0400,693,1.413524,0,0,510.951,0,0,2021-04-05 21:31:23.868 -0400,639365512.1812072,0,-2.58,98.19712,1,0.67
2021-04-05 21:31:52.736 -0400,0,0,0,0,0,0,0,0,0,15252.320448875,-0.0592498779296875,-0.252349853515625,-0.957366943359375,15252.305373875,-1.736382832586952,-0.06281801918956216,0.2572785557166504,-0.006920516490936279,0.005516721401363611,0.01487899012863636,0.008678063750267029,0.003839284181594849,0.01133638620376587,XArbitraryZVertical,0.05908956578559931,-0.1179794461387158,-0.7590857854805361,0.6374779080530744,-0.06071048229932785,-0.2544496357440948,-0.9651785492897034,0,0,0,-1,-1,15223.454926625,unknown,2,2021-04-05 21:31:23.869 -0400,2021-04-05 19:23:45.401 -0400,693,1.413524,0,0,510.951,0,0,2021-04-05 21:31:23.868 -0400,639365512.1812072,0,-2.58,98.19712,1,0.67
2021-04-05 21:31:52.771 -0400,0,0,0,0,0,0,0,0,0,15252.355635875,-0.05517578125,-0.2555389404296875,-0.98089599609375,15252.335524875,-1.736403094440313,-0.06258879286311229,0.2566793762814671,-0.0368078202009201,0.01738184131681919,-0.01492847315967083,-0.003176108002662659,0.003793835639953613,0.001568794250488281,XArbitraryZVertical,0.05898255073277484,-0.1176811152416344,-0.7591087419120495,0.6375156325327381,-0.06049876287579536,-0.2538701295852661,-0.9653444290161133,0,0,0,-1,-1,15223.454926625,unknown,2,2021-04-05 21:31:23.869 -0400,2021-04-05 19:23:45.401 -0400,693,1.413524,0,0,510.951,0,0,2021-04-05 21:31:23.868 -0400,639365512.1812072,0,-2.58,98.19712,1,0.67
2021-04-05 21:31:52.806 -0400,0,0,0,0,0,0,0,0,0,15252.390852875,-0.064453125,-0.254486083984375,-0.97314453125,15252.365706875,-1.737022567635142,-0.06198802220755773,0.2559656343907405,-0.002613352844491601,0.0130704902112484,0.000157051719725132,0.006097063422203064,-0.000131458044052124,-0.01364105939865112,XArbitraryZVertical,0.0589445685196608,-0.1172388176969296,-0.7593161288758355,0.6373534603342845,-0.05993000790476799,-0.2531796991825104,-0.9655612111091614,0,0,0,-1,-1,15223.454926625,unknown,2,2021-04-05 21:31:23.869 -0400,2021-04-05 19:23:45.401 -0400,693,1.413524,0,0,510.951,0,0,2021-04-05 21:31:23.868 -0400,639365512.1812072,0,-2.58,98.19712,1,0.67
2021-04-05 21:31:52.841 -0400,0,0,0,0,0,0,0,0,0,15252.426039875,-0.0711517333984375,-0.257537841796875,-0.9587860107421875,15252.395857875,-1.736232583636864,-0.06143726681783648,0.2563695413964463,0.01918554306030273,0.01507107820361853,0.02805701084434986,-0.005061138421297073,-0.0009156167507171631,-0.007652580738067627,XArbitraryZVertical,0.05932989718899276,-0.1171921685825921,-0.7590323628639035,0.6376644232362534,-0.05939193069934845,-0.2535704374313354,-0.9654918909072876,0,0,0,-1,-1,15223.454926625,unknown,2,2021-04-05 21:31:23.869 -0400,2021-04-05 19:23:45.401 -0400,693,1.413524,0,0,510.951,0,0,2021-04-05 21:31:23.868 -0400,639365512.1812072,0,-2.58,98.19712,1,0.67
2021-04-05 21:31:52.936 -0400,0,0,0,0,0,0,0,0,0,15252.461226875,-0.0688629150390625,-0.2568206787109375,-0.9602203369140625,15252.456221875,-1.735969819708971,-0.0614260205970542,0.2563131274165184,-0.009989943355321884,-0.01042596437036991,-0.01485313940793276,-0.01192230731248856,-0.004342406988143921,0.0007851719856262207,XArbitraryZVertical,0.05933139851755617,-0.1171595353855213,-0.7589504301542201,0.6377676772739456,-0.05938194692134857,-0.2535158693790436,-0.9655068516731262,0,0,0,-1,-1,15223.454926625,unknown,2,2021-04-05 21:31:23.869 -0400,2021-04-05 19:23:45.401 -0400,693,1.413524,0,0,510.951,0,0,2021-04-05 21:31:23.868 -0400,639365512.1812072,0,-2.58,98.19712,1,0.67
2021-04-05 21:31:52.941 -0400,0,0,0,0,0,0,0,0,0,15252.496443875,-0.0699005126953125,-0.2535247802734375,-0.9594879150390625,15252.486372875,-1.736383195667946,-0.06187211708493055,0.2562635273685687,-0.007728574797511101,-0.01856485195457935,-0.01492363028228283,-0.008912093937397003,0.00368151068687439,0.0121694803237915,XArbitraryZVertical,0.05912190919745262,-0.1172953039745605,-0.7590973738580375,0.6375873395253061,-0.05981342867016792,-0.2534678876399994,-0.965492844581604,0,0,0,-1,-1,15223.454926625,unknown,2,2021-04-05 21:31:23.869 -0400,2021-04-05 19:23:45.401 -0400,693,1.413524,0,0,510.951,0,0,2021-04-05 21:31:23.868 -0400,639365512.1812072,0,-2.58,98.19712,1,0.67
2021-04-05 21:31:52.947 -0400,0,0,0,0,0,0,0,0,0,15252.531630875,-0.05926513671875,-0.250579833984375,-0.9705657958984375,15252.516554875,-1.737400459827029,-0.06289235240004816,0.2555543386798311,-0.03831316158175468,-0.04236193746328354,-0.04713769257068634,-0.003811199218034744,-0.005625784397125244,0.000171661376953125,XArbitraryZVertical,0.05844673235847771,-0.1173829318624342,-0.7594789883319922,0.637178840990309,-0.06080970913171768,-0.2527817785739899,-0.9656104445457458,0,0,0,-1,-1,15223.454926625,unknown,2,2021-04-05 21:31:23.869 -0400,2021-04-05 19:23:45.401 -0400,693,1.413524,0,0,510.951,0,0,2021-04-05 21:31:23.868 -0400,639365512.1812072,0,-2.58,98.19712,1,0.67
2021-04-05 21:31:52.982 -0400,0,0,0,0,0,0,0,0,0,15252.566817875,-0.056671142578125,-0.2592010498046875,-0.9744110107421875,15252.546706875,-1.73841208518665,-0.06363702027571251,0.2549599835052496,-0.02324031107127666,-0.008371335454285145,-0.01891987025737762,0.002578392624855042,0.002481341361999512,-0.008391141891479492,XArbitraryZVertical,0.05791338025270438,-0.117425307646439,-0.7598457044323399,0.6367825052156576,-0.06153829768300056,-0.2522066831588745,-0.965714693069458,0,0,0,-1,-1,15223.454926625,unknown,2,2021-04-05 21:31:23.869 -0400,2021-04-05 19:23:45.401 -0400,693,1.413524,0,0,510.951,0,0,2021-04-05 21:31:23.868 -0400,639365512.1812072,0,-2.58,98.19712,1,0.67
2021-04-05 21:31:53.017 -0400,0,0,0,0,0,0,0,0,0,15252.602034875,-0.0597991943359375,-0.2564849853515625,-0.9700164794921875,15252.576888875,-1.738865033103079,-0.06419501897158938,0.2546688868923409,-0.0001726322807371616,-0.01845197565853596,-0.01716045290231705,0.005197156220674515,-0.007245510816574097,-0.007223248481750488,XArbitraryZVertical,0.05758118127838405,-0.1175061894664151,-0.7600171435377765,0.6365929827374772,-0.06208186224102974,-0.251924991607666,-0.9657533764839172,0,0,0,-1,-1,15223.454926625,unknown,2,2021-04-05 21:31:23.869 -0400,2021-04-05 19:23:45.401 -0400,693,1.413524,0,0,510.951,0,0,2021-04-05 21:31:23.868 -0400,639365512.1812072,0,-2.58,98.19712,1,0.67
2021-04-05 21:31:53.052 -0400,0,0,0,0,0,0,0,0,0,15252.637221875,-0.05377197265625,-0.24920654296875,-0.965545654296875,15252.607039875,-1.739481483144182,-0.06452517116600334,0.2548662956992193,-0.006817596033215523,-0.01013039611279964,-0.02640758082270622,0.002598360180854797,-0.004368960857391357,-0.004333257675170898,XArbitraryZVertical,0.05748289266241029,-0.1177034955514273,-0.7602152683988385,0.6363287695102908,-0.06239749491214752,-0.2521160244941711,-0.9656832218170166,0,0,0,-1,-1,15223.454926625,unknown,2,2021-04-05 21:31:23.869 -0400,2021-04-05 19:23:45.401 -0400,693,1.413524,0,0,510.951,0,0,2021-04-05 21:31:23.868 -0400,639365512.1812072,0,-2.58,98.19712,1,0.67
2021-04-05 21:31:53.088 -0400,0,0,0,0,0,0,0,0,0,15252.672408875,-0.059844970703125,-0.24517822265625,-0.9557342529296875,15252.667403875,-1.740929924985846,-0.06415983950047888,0.2550099734530857,0.0002822023816406727,-0.004267036914825439,-0.01586417481303215,0.005371298640966415,0.004788070917129517,0.01022547483444214,XArbitraryZVertical,0.05758270900288402,-0.117683215596869,-0.7606599151649275,0.6357919872973238,-0.06204237416386604,-0.2522550523281097,-0.9656698107719421,0,0,0,-1,-1,15223.454926625,unknown,2,2021-04-05 21:31:23.869 -0400,2021-04-05 19:23:45.401 -0400,693,1.413524,0,0,510.951,0,0,2021-04-05 21:31:23.868 -0400,639365512.1812072,0,-2.58,98.19712,1,0.67
2021-04-05 21:31:53.123 -0400,0,0,0,0,0,0,0,0,0,15252.707625875,-0.05322265625,-0.2448577880859375,-0.96099853515625,15252.697554875,-1.741875168194235,-0.06402537622888062,0.2544240370135054,-0.03223621472716331,-0.009716274216771126,-0.03110308200120926,0.006593666970729828,0.00112345814704895,-0.0003305673599243164,XArbitraryZVertical,0.0573902514962167,-0.117446295134254,-0.7609789052979283,0.6354713603586793,-0.06192197278141975,-0.2516880333423615,-0.9658254384994507,0,0,0,-1,-1,15223.454926625,unknown,2,2021-04-05 21:31:23.869 -0400,2021-04-05 19:23:45.401 -0400,693,1.413524,0,0,510.951,0,0,2021-04-05 21:31:23.868 -0400,639365512.1812072,0,-2.58,98.19712,1,0.67
2021-04-05 21:31:53.158 -0400,0,0,0,0,0,0,0,0,0,15252.742812875,-0.0595703125,-0.249969482421875,-0.959686279296875,15252.727736875,-1.742225945487072,-0.06385066710316979,0.2538052580160974,-0.01563850790262222,0.002898895647376776,0.009102260693907738,0.0073503777384758,0.005834609270095825,0.007144451141357422,XArbitraryZVertical,0.05723764569592827,-0.117166997462748,-0.7611090014752494,0.6353808506742418,-0.06176315993070602,-0.2510891258716583,-0.9659914970397949,0,0,0,-1,-1,15223.454926625,unknown,2,2021-04-05 21:31:23.869 -0400,2021-04-05 19:23:45.401 -0400,693,1.413524,0,0,510.951,0,0,2021-04-05 21:31:23.868 -0400,639365512.1812072,0,-2.58,98.19712,1,0.67
2021-04-05 21:31:53.193 -0400,0,0,0,0,0,0,0,0,0,15252.777998875,-0.061798095703125,-0.257080078125,-0.9821014404296875,15252.757887875,-1.742196479936127,-0.06415199630580652,0.2526476259723051,-0.05030956864356995,-0.02884709276258945,-0.008680680766701698,0.001754894852638245,-0.001923665404319763,0.0009302496910095215,XArbitraryZVertical,0.05675333222073727,-0.1168243459381705,-0.7611522869846845,0.6354355578272831,-0.06207282841205597,-0.249968409538269,-0.9662622809410095,0,0,0,-1,-1,15223.454926625,unknown,2,2021-04-05 21:31:23.869 -0400,2021-04-05 19:23:45.401 -0400,693,1.413524,0,0,510.951,0,0,2021-04-05 21:31:23.868 -0400,639365512.1812072,0,-2.58,98.19712,1,0.67
2021-04-05 21:31:53.228 -0400,0,0,0,0,0,0,0,0,0,15252.813216875,-0.0609588623046875,-0.2549896240234375,-0.9785614013671875,15252.788069875,-1.742622162723339,-0.06434446958046777,0.251397736861863,-0.02759215980768204,-0.0004215952940285206,-0.004162529017776251,0.002067729830741882,-0.01003104448318481,-0.01842403411865234,XArbitraryZVertical,0.05625430938675523,-0.1164250368194284,-0.7613401957665558,0.6353280475705076,-0.06227884814143181,-0.248758003115654,-0.9665613174438477,0,0,0,-1,-1,15223.454926625,unknown,2,2021-04-05 21:31:23.869 -0400,2021-04-05 19:23:45.401 -0400,693,1.413524,0,0,510.951,0,0,2021-04-05 21:31:23.868 -0400,639365512.1812072,0,-2.58,98.19712,1,0.67
2021-04-05 21:31:53.264 -0400,0,0,0,0,0,0,0,0,0,15252.848403875,-0.072265625,-0.2579498291015625,-0.9715576171875,15252.818251875,-1.742187661407162,-0.06414833022483699,0.2512421537511981,0.006195762660354376,0.006471935659646988,0.02785885334014893,0.001132946461439133,-0.006382301449775696,-0.01194924116134644,XArbitraryZVertical,0.05630433709949558,-0.1162916754500699,-0.761202491848775,0.6355130323673409,-0.06209174543619156,-0.2486073076725006,-0.9666121602058411,0,0,0,-1,-1,15223.454926625,unknown,2,2021-04-05 21:31:23.869 -0400,2021-04-05 19:23:45.401 -0400,693,1.413524,0,0,510.951,0,0,2021-04-05 21:31:23.868 -0400,639365512.1812072,0,-2.58,98.19712,1,0.67
2021-04-05 21:31:53.299 -0400,0,0,0,0,0,0,0,0,0,15252.883589875,-0.0645904541015625,-0.2550201416015625,-0.98297119140625,15252.878584875,-1.742242025485214,-0.06411418720684696,0.2512527218942537,0.02155474573373795,0.0001945984549820423,-0.01210187748074532,-0.003432080149650574,-0.01423034071922302,-0.01974701881408691,XArbitraryZVertical,0.05631755937385058,-0.1162863587672635,-0.7612184018594043,0.6354937168127622,-0.06205857545137405,-0.2486175447702408,-0.9666116237640381,0,0,0,-1,-1,15223.454926625,unknown,2,2021-04-05 21:31:23.869 -0400,2021-04-05 19:23:45.401 -0400,693,1.413524,0,0,510.951,0,0,2021-04-05 21:31:23.868 -0400,639365512.1812072,0,-2.58,98.19712,1,0.67
2021-04-05 21:31:53.334 -0400,0,0,0,0,0,0,0,0,0,15252.918807875,-0.0658416748046875,-0.253997802734375,-0.9504241943359375,15252.908736875,-1.742233652397058,-0.0635815513158611,0.2530516334658096,0.07213933765888214,0.02940699644386768,-0.004436068702489138,-0.005226679146289825,-0.006216943264007568,-0.001317381858825684,XArbitraryZVertical,0.05709785710079943,-0.1167968801540807,-0.7611324977364518,0.6354333569834022,-0.0615151971578598,-0.2503595650196075,-0.9661966562271118,0,0,0,-1,-1,15223.454926625,unknown,2,2021-04-05 21:31:23.869 -0400,2021-04-05 19:23:45.401 -0400,693,1.413524,0,0,510.951,0,0,2021-04-05 21:31:23.868 -0400,639365512.1812072,0,-2.58,98.19712,1,0.67
2021-04-05 21:31:53.404 -0400,0,0,0,0,0,0,0,0,0,15252.953993875,-0.0592193603515625,-0.2521209716796875,-0.9539337158203125,15252.938918875,-1.742575289492768,-0.06341344336822256,0.2543718318193541,0.01420012582093477,-0.02588852308690548,-0.02661146223545074,-0.00377742201089859,-0.002680718898773193,0.02111309766769409,XArbitraryZVertical,0.0575652952266337,-0.1172522774447162,-0.7611857408044882,0.6352436827738741,-0.06133177503943443,-0.2516375184059143,-0.9658762812614441,0,0,0,-1,-1,15223.454926625,unknown,2,2021-04-05 21:31:23.869 -0400,2021-04-05 19:23:45.401 -0400,693,1.413524,0,0,510.951,0,0,2021-04-05 21:31:23.868 -0400,639365512.1812072,0,-2.58,98.19712,1,0.67
2021-04-05 21:31:53.447 -0400,0,0,0,0,0,0,0,0,0,15252.989211875,-0.0527191162109375,-0.255401611328125,-0.9816741943359375,15252.969069875,-1.743468161902854,-0.06408738622690088,0.2543677661473295,-0.02640576660633087,-0.005698525812476873,-0.0173962414264679,0.004960730671882629,0.004456460475921631,0.003799617290496826,XArbitraryZVertical,0.05725503940356464,-0.1174903789984001,-0.7614887434429203,0.634864348928551,-0.06198276951909065,-0.2516335546970367,-0.9658357501029968,0,0,0,-1,-1,15223.454926625,unknown,2,2021-04-05 21:31:23.869 -0400,2021-04-05 19:23:45.401 -0400,693,1.413524,0,0,510.951,0,0,2021-04-05 21:31:23.868 -0400,639365512.1812072,0,-2.58,98.19712,1,0.67
2021-04-05 21:31:53.452 -0400,0,0,0,0,0,0,0,0,0,15253.024397875,-0.0564422607421875,-0.25640869140625,-0.9928741455078125,15252.999251875,-1.743722312726597,-0.06385598090409166,0.2539654479962646,0.003441476728767157,0.02282265946269035,0.0008663181215524673,0.006361111998558044,-0.004538893699645996,-0.01615041494369507,XArbitraryZVertical,0.05719928462107523,-0.1172720567411805,-0.7615781958167854,0.6348024587925787,-0.06176572293043137,-0.2512441873550415,-0.9659510254859924,0,0,0,-1,-1,15223.454926625,unknown,2,2021-04-05 21:31:23.869 -0400,2021-04-05 19:23:45.401 -0400,693,1.413524,0,0,510.951,0,0,2021-04-05 21:31:23.868 -0400,639365512.1812072,0,-2.58,98.19712,1,0.67
2021-04-05 21:31:53.475 -0400,0,0,0,0,0,0,0,0,0,15253.059584875,-0.07073974609375,-0.24432373046875,-0.9838409423828125,15253.029433875,-1.743598735038342,-0.06352755452795575,0.2548348635914461,0.03083521872758865,-0.007573432754725218,0.008267343044281006,0.004992380738258362,-0.004323065280914307,-0.02712124586105347,XArbitraryZVertical,0.05761023777776852,-0.1174930532606244,-0.7614961844956171,0.634822802772818,-0.06143458560109138,-0.2520855963230133,-0.965752899646759,0,0,0,-1,-1,15223.454926625,unknown,2,2021-04-05 21:31:23.869 -0400,2021-04-05 19:23:45.401 -0400,693,1.413524,0,0,510.951,0,0,2021-04-05 21:31:23.868 -0400,639365512.1812072,0,-2.58,98.19712,1,0.67
2021-04-05 21:31:53.510 -0400,0,0,0,0,0,0,0,0,0,15253.094801875,-0.0832061767578125,-0.2445831298828125,-0.9469146728515625,15253.089766875,-1.741335269120321,-0.06343935792603646,0.2603403954097856,0.1079855933785439,0.006361189298331738,0.03225187212228775,-0.01910749450325966,0.01645800471305847,0.005420029163360596,XArbitraryZVertical,0.05954336818922278,-0.1194792477733803,-0.7605602249023923,0.6353954007836832,-0.06126049533486366,-0.2574094831943512,-0.9643585681915283,0,0,0,-1,-1,15223.454926625,unknown,2,2021-04-05 21:31:23.869 -0400,2021-04-05 19:23:45.401 -0400,693,1.413524,0,0,510.951,0,0,2021-04-05 21:31:23.868 -0400,639365512.1812072,0,-2.58,98.19712,1,0.67
2021-04-05 21:31:53.545 -0400,0,0,0,0,0,0,0,0,0,15253.129988875,-0.0784759521484375,-0.2447509765625,-0.9298553466796875,15253.119917875,-1.740937523298514,-0.06359398968200954,0.2626069769382192,0.04763294011354446,-0.02948889136314392,-0.01835276558995247,-0.02348168939352036,0.01387149095535278,0.03627413511276245,XArbitraryZVertical,0.06023570233369011,-0.1203722171051213,-0.7603485733383948,0.6354150592309062,-0.06137237697839737,-0.2595990300178528,-0.9637643694877625,0,0,0,-1,-1,15223.454926625,unknown,2,2021-04-05 21:31:23.869 -0400,2021-04-05 19:23:45.401 -0400,693,1.413524,0,0,510.951,0,0,2021-04-05 21:31:23.868 -0400,639365512.1812072,0,-2.58,98.19712,1,0.67
2021-04-05 21:31:53.580 -0400,0,0,0,0,0,0,0,0,0,15253.165175875,-0.0446929931640625,-0.2422332763671875,-0.962554931640625,15253.150099875,-1.742597178108334,-0.06535756765690302,0.2618707021181164,-0.05290314555168152,-0.1009091585874557,-0.07185730338096619,-0.002192623913288116,0.01393860578536987,0.01868522167205811,XArbitraryZVertical,0.05922877341539742,-0.1207037605226842,-0.760957453645188,0.6347174856551046,-0.06308442354202271,-0.25888791680336,-0.9638451337814331,0,0,0,-1,-1,15223.454926625,unknown,2,2021-04-05 21:31:23.869 -0400,2021-04-05 19:23:45.401 -0400,693,1.413524,0,0,510.951,0,0,2021-04-05 21:31:23.868 -0400,639365512.1812072,0,-2.58,98.19712,1,0.67
2021-04-05 21:31:53.616 -0400,0,0,0,0,0,0,0,0,0,15253.200392875,-0.0489044189453125,-0.24676513671875,-0.97833251953125,15253.180281875,-1.743777931531683,-0.0686308634652628,0.2604570042763173,-0.01221119612455368,-0.09758491814136505,0.003065406810492277,0.02543161064386368,0.01634177565574646,-0.00389784574508667,XArbitraryZVertical,0.05745833970790251,-0.1212424412530292,-0.761482797460527,0.6341473063895918,-0.06626406311988831,-0.2575221657752991,-0.9639976024627686,0,0,0,-1,-1,15223.454926625,unknown,2,2021-04-05 21:31:23.869 -0400,2021-04-05 19:23:45.401 -0400,693,1.413524,0,0,510.951,0,0,2021-04-05 21:31:23.868 -0400,639365512.1812072,0,-2.58,98.19712,1,0.67
2021-04-05 21:31:53.651 -0400,0,0,0,0,0,0,0,0,0,15253.235579875,-0.0579833984375,-0.2527313232421875,-0.9732818603515625,15253.210433875,-1.742759418638788,-0.07211028286443749,0.2599640948006311,-0.01554322056472301,-0.0789404958486557,0.04338009282946587,0.01898308098316193,0.008388638496398926,-0.01623010635375977,XArbitraryZVertical,0.0560376902110765,-0.1221307611233652,-0.7612774464594155,0.6343504265570551,-0.06962694227695465,-0.2570458650588989,-0.9638876914978027,0,0,0,-1,-1,15223.454926625,unknown,2,2021-04-05 21:31:23.869 -0400,2021-04-05 19:23:45.401 -0400,693,1.413524,0,0,510.951,0,0,2021-04-05 21:31:23.868 -0400,639365512.1812072,0,-2.58,98.19712,1,0.67
2021-04-05 21:31:53.686 -0400,0,0,0,0,0,0,0,0,0,15253.27076916667,-0.055755615234375,-0.252105712890625,-0.9721221923828125,15253.240614875,-1.741656447260564,-0.07406913825493565,0.2595816368876264,-0.008163401857018471,-0.0496269166469574,0.0257431399077177,0.01353886723518372,0.003944933414459229,-0.009434401988983154,XArbitraryZVertical,0.05523696333419972,-0.1225771578573347,-0.7609964842046975,0.6346715216415543,-0.07152219116687775,-0.2566762268543243,-0.9638474583625793,0,0,0,-1,-1,15223.454926625,unknown,2,2021-04-05 21:31:23.869 -0400,2021-04-05 19:23:45.401 -0400,693,1.413524,0,0,510.951,0,0,2021-04-05 21:31:23.868 -0400,639365512.1812072,0,-2.58,98.19712,1,0.67
2021-04-05 21:31:53.721 -0400,0,0,0,0,0,0,0,0,0,15253.30598616667,-0.0728607177734375,-0.2646331787109375,-0.9635009765625,15253.30095116667,-1.739319729410648,-0.07601424142338269,0.2576089146842171,0.02401948906481266,-0.02292008325457573,0.04910629987716675,0.004389189183712006,-0.01158833503723145,-0.002907812595367432,XArbitraryZVertical,0.0540065212392313,-0.1223868337251561,-0.7603810891798667,0.6355513081827663,-0.07343515008687973,-0.2547690868377686,-0.9642094969749451,0,0,0,-1,-1,15223.454926625,unknown,2,2021-04-05 21:31:23.869 -0400,2021-04-05 19:23:45.401 -0400,693,1.413524,0,0,510.951,0,0,2021-04-05 21:31:23.868 -0400,639365512.1812072,0,-2.58,98.19712,1,0.67
2021-04-05 21:31:53.757 -0400,0,0,0,0,0,0,0,0,0,15253.34117316667,-0.0736846923828125,-0.2533416748046875,-0.9651031494140625,15253.33110216667,-1.738392016080784,-0.07617521503846511,0.257817921748304,-0.01050171349197626,-0.01359574031084776,0.02224789001047611,-0.0002814307808876038,-0.001422226428985596,0.002123713493347168,XArbitraryZVertical,0.05406933911620024,-0.1224917299665635,-0.7600828438509313,0.6358823611808991,-0.07358630746603012,-0.2549712061882019,-0.9641445875167847,0,0,0,-1,-1,15223.454926625,unknown,2,2021-04-05 21:31:23.869 -0400,2021-04-05 19:23:45.401 -0400,693,1.413524,0,0,510.951,0,0,2021-04-05 21:31:23.868 -0400,639365512.1812072,0,-2.58,98.19712,1,0.67
2021-04-05 21:31:53.792 -0400,0,0,0,0,0,0,0,0,0,15253.37636016667,-0.07977294921875,-0.2474212646484375,-0.938262939453125,15253.36128416667,-1.737689158339823,-0.07557977049100484,0.2576049194751884,0.01905883103609085,0.03002865985035896,0.03845956549048424,-0.002606205642223358,0.007282942533493042,0.006615996360778809,XArbitraryZVertical,0.05427006437080781,-0.1222030585511343,-0.7598510541058466,0.6361977825168558,-0.07301630079746246,-0.2547652423381805,-0.9642423391342163,0,0,0,-1,-1,15223.454926625,unknown,2,2021-04-05 21:31:23.869 -0400,2021-04-05 19:23:45.401 -0400,693,1.413524,0,0,510.951,0,0,2021-04-05 21:31:23.868 -0400,639365512.1812072,0,-2.58,98.19712,1,0.67
2021-04-05 21:31:53.827 -0400,0,0,0,0,0,0,0,0,0,15253.41157716667,-0.0866851806640625,-0.249176025390625,-0.9286651611328125,15253.39146616667,-1.73675593780236,-0.07479802656024183,0.2577795785751017,-0.05642785876989365,0.01958534121513367,0.01194175705313683,-0.01296112686395645,0.007802784442901611,0.03153073787689209,XArbitraryZVertical,0.05468019958784798,-0.1219946853698329,-0.7595263583991354,0.6365902939610394,-0.07225915789604187,-0.2549341320991516,-0.9642547369003296,0,0,0,-1,-1,15223.454926625,unknown,2,2021-04-05 21:31:23.869 -0400,2021-04-05 19:23:45.401 -0400,693,1.413524,0,0,510.951,0,0,2021-04-05 21:31:23.868 -0400,639365512.1812072,0,-2.58,98.19712,1,0.67
2021-04-05 21:31:53.902 -0400,0,0,0,0,0,0,0,0,0,15253.44676416667,-0.072296142578125,-0.2488555908203125,-0.9495697021484375,15253.42161716667,-1.73716612751564,-0.07450021263694356,0.2549253581633631,-0.111335501074791,-0.002190508414059877,-0.0162690244615078,-0.01563583314418793,0.002341032028198242,0.03596651554107666,XArbitraryZVertical,0.05384952073144544,-0.1208357283779629,-0.7597538739625309,0.6366106265975402,-0.0720258504152298,-0.2521731853485107,-0.9649978876113892,0,0,0,-1,-1,15223.454926625,unknown,2,2021-04-05 21:31:23.869 -0400,2021-04-05 19:23:45.401 -0400,693,1.413524,0,0,510.951,0,0,2021-04-05 21:31:23.868 -0400,639365512.1812072,0,-2.58,98.19712,1,0.67
2021-04-05 21:31:53.944 -0400,0,0,0,0,0,0,0,0,0,15253.48195016667,-0.069061279296875,-0.26300048828125,-0.9770965576171875,15253.45179916667,-1.737642825914331,-0.07499493547924294,0.2511148573120532,-0.1456795036792755,-0.0272660106420517,0.007229525595903397,0.0002786442637443542,-0.0003715753555297852,0.01634365320205688,XArbitraryZVertical,0.05240627968552426,-0.1195696629118229,-0.7600565458928509,0.6366087690879177,-0.07257471978664398,-0.2484840005636215,-0.9659133553504944,0,0,0,-1,-1,15223.454926625,unknown,2,2021-04-05 21:31:23.869 -0400,2021-04-05 19:23:45.401 -0400,693,1.413524,0,0,510.951,0,0,2021-04-05 21:31:23.868 -0400,639365512.1812072,0,-2.58,98.19712,1,0.67
2021-04-05 21:31:53.949 -0400,0,0,0,0,0,0,0,0,0,15253.51716816667,-0.0881195068359375,-0.275177001953125,-0.9944000244140625,15253.51213216667,-1.734627464854162,-0.0800204355669587,0.2449365647033173,-0.053132064640522,-0.01592824049293995,0.0983496829867363,-0.0105244517326355,-0.01376131176948547,-0.0203021764755249,XArbitraryZVertical,0.04868588968227314,-0.118766739781845,-0.7594374653904848,0.6377921826180972,-0.07754921913146973,-0.2424947768449783,-0.9670482873916626,0,0,0,-1,-1,15223.454926625,unknown,2,2021-04-05 21:31:23.869 -0400,2021-04-05 19:23:45.401 -0400,693,1.413524,0,0,510.951,0,0,2021-04-05 21:31:23.868 -0400,639365512.1812072,0,-2.58,98.19712,1,0.67
2021-04-05 21:31:53.968 -0400,0,0,0,0,0,0,0,0,0,15253.55235416667,-0.085052490234375,-0.2671356201171875,-0.9873046875,15253.54228416667,-1.733198724105564,-0.08047974401711588,0.2435916885732795,-0.05780072882771492,0.004818214569240808,0.009597457945346832,-0.01353314518928528,-0.03177464008331299,-0.02161586284637451,XArbitraryZVertical,0.04816214470195911,-0.1183724019992371,-0.75903783198282,0.6383806913537227,-0.07801952958106995,-0.2411898225545883,-0.9673367738723755,0,0,0,-1,-1,15223.454926625,unknown,2,2021-04-05 21:31:23.869 -0400,2021-04-05 19:23:45.401 -0400,693,1.413524,0,0,510.951,0,0,2021-04-05 21:31:23.868 -0400,639365512.1812072,0,-2.58,98.19712,1,0.67
2021-04-05 21:31:54.002 -0400,0,0,0,0,0,0,0,0,0,15253.58754116667,-0.0749969482421875,-0.2482147216796875,-0.9857635498046875,15253.57246616667,-1.733597487649861,-0.07983953124433427,0.2430354497898767,0.0003103762865066528,-0.007914153859019279,-0.01395121030509472,-0.0008971467614173889,-0.0177881270647049,-0.02103579044342041,XArbitraryZVertical,0.04820198249871641,-0.1179682990799142,-0.7591682278472366,0.6382974533616351,-0.07741089910268784,-0.2406499683856964,-0.9675201177597046,0,0,0,-1,-1,15223.454926625,unknown,2,2021-04-05 21:31:23.869 -0400,2021-04-05 19:23:45.401 -0400,693,1.413524,0,0,510.951,0,0,2021-04-05 21:31:23.868 -0400,639365512.1812072,0,-2.58,98.19712,1,0.67
2021-04-05 21:31:54.038 -0400,0,0,0,0,0,0,0,0,0,15253.62275916667,-0.076171875,-0.2347259521484375,-0.97149658203125,15253.60264716667,-1.733914014046352,-0.08047872594882324,0.2443523755295186,0.04246960207819939,-0.01574792340397835,-0.00984596461057663,0.004120774567127228,-0.0008088201284408569,-0.01683986186981201,XArbitraryZVertical,0.04836572932180452,-0.1186756500680593,-0.7592406544594373,0.6380678396486452,-0.07800377905368805,-0.2419279962778091,-0.9671536684036255,0,0,0,-1,-1,15223.454926625,unknown,2,2021-04-05 21:31:23.869 -0400,2021-04-05 19:23:45.401 -0400,693,1.413524,0,0,510.951,0,0,2021-04-05 21:31:23.868 -0400,639365512.1812072,0,-2.58,98.19712,1,0.67
2021-04-05 21:31:54.073 -0400,0,0,0,0,0,0,0,0,0,15253.65794516667,-0.0820465087890625,-0.234222412109375,-0.96038818359375,15253.63279916667,-1.733980098057765,-0.08055334017970241,0.2465308792551392,0.04270067438483238,0.02659256756305695,-0.004010844975709915,0.0008849799633026123,0.01055122911930084,-0.003747165203094482,XArbitraryZVertical,0.0490365868854233,-0.1195210946652111,-0.759190135191678,0.637918899202954,-0.07803334295749664,-0.2440412044525146,-0.9666202664375305,0,0,0,-1,-1,15223.454926625,unknown,2,2021-04-05 21:31:23.869 -0400,2021-04-05 19:23:45.401 -0400,693,1.413524,0,0,510.951,0,0,2021-04-05 21:31:23.868 -0400,639365512.1812072,0,-2.58,98.19712,1,0.67
2021-04-05 21:31:54.108 -0400,0,0,0,0,0,0,0,0,0,15253.69313216667,-0.078948974609375,-0.2308502197265625,-0.963897705078125,15253.66298116667,-1.733767100408317,-0.07981803589249026,0.2479297663129682,0.03254920616745949,0.01356573589146137,0.006088910158723593,-0.004751183092594147,0.01117515563964844,0.00594794750213623,XArbitraryZVertical,0.04977989538444823,-0.1198077921234312,-0.7590563337254669,0.6379666731879028,-0.07729526609182358,-0.2453975528478622,-0.9663361310958862,0,0,0,-1,-1,15223.454926625,unknown,2,2021-04-05 21:31:23.869 -0400,2021-04-05 19:23:45.401 -0400,693,1.413524,0,0,510.951,0,0,2021-04-05 21:31:23.868 -0400,639365512.1812072,0,-2.58,98.19712,1,0.67
2021-04-05 21:31:54.143 -0400,0,0,0,0,0,0,0,0,0,15253.72834916667,-0.09320068359375,-0.23590087890625,-0.952728271484375,15253.72331416667,-1.731414571107032,-0.08132568226763724,0.2492381371885346,0.01007119566202164,-0.002020885236561298,0.05067228898406029,-0.007882900536060333,0.01250435411930084,0.002854466438293457,XArbitraryZVertical,0.04977202270744595,-0.1207224981450205,-0.7582982107431198,0.638696169506777,-0.07872591912746429,-0.2466657161712646,-0.9658976197242737,0,0,0,-1,-1,15223.454926625,unknown,2,2021-04-05 21:31:23.869 -0400,2021-04-05 19:23:45.401 -0400,693,1.413524,0,0,510.951,0,0,2021-04-05 21:31:23.868 -0400,639365512.1812072,0,-2.58,98.19712,1,0.67
2021-04-05 21:31:54.178 -0400,0,0,0,0,0,0,0,0,0,15253.76353616667,-0.0844879150390625,-0.25115966796875,-0.9296722412109375,15253.75349616667,-1.730535454960111,-0.08059570529980541,0.2483412661247749,-0.06623922288417816,0.04487574100494385,-0.001535487128421664,-0.01833584904670715,0.004326134920120239,0.03291696310043335,XArbitraryZVertical,0.04981173600556033,-0.120130357451216,-0.7580298493001117,0.6391230599236009,-0.07803859561681747,-0.2457964569330215,-0.9661749601364136,0,0,0,-1,-1,15223.454926625,unknown,2,2021-04-05 21:31:23.869 -0400,2021-04-05 19:23:45.401 -0400,693,1.413524,0,0,510.951,0,0,2021-04-05 21:31:23.868 -0400,639365512.1812072,0,-2.58,98.19712,1,0.67
2021-04-05 21:31:54.214 -0400,0,0,0,0,0,0,0,0,0,15253.79872316667,-0.0695343017578125,-0.254913330078125,-0.97357177734375,15253.78364716667,-1.731388089370408,-0.0804037522399538,0.2448394792919812,-0.1464949250221252,-0.04649640992283821,-0.02903706952929497,0.001154877245426178,-0.01141409575939178,0.02592563629150391,XArbitraryZVertical,0.04870145611382154,-0.1187736873241993,-0.7584160600630023,0.639004000510637,-0.0779217928647995,-0.2424006015062332,-0.9670419692993164,0,0,0,-1,-1,15223.454926625,unknown,2,2021-04-05 21:31:23.869 -0400,2021-04-05 19:23:45.401 -0400,693,1.413524,0,0,510.951,0,0,2021-04-05 21:31:23.868 -0400,639365512.1812072,0,-2.58,98.19712,1,0.67
2021-04-05 21:31:54.249 -0400,0,0,0,0,0,0,0,0,0,15253.83394016667,-0.0762481689453125,-0.256378173828125,-1.025970458984375,15253.81382916667,-1.731993417014081,-0.08276437979235658,0.2402772737708719,-0.1328860372304916,-0.0841391459107399,0.01031684502959251,0.009128056466579437,-0.0147135853767395,-0.02022707462310791,XArbitraryZVertical,0.04629560143968823,-0.1178263306530699,-0.7588156815962089,0.6388836863634861,-0.08029498159885406,-0.2379719465970993,-0.9679473638534546,0,0,0,-1,-1,15223.454926625,unknown,2,2021-04-05 21:31:23.869 -0400,2021-04-05 19:23:45.401 -0400,693,1.413524,0,0,510.951,0,0,2021-04-05 21:31:23.868 -0400,639365512.1812072,0,-2.58,98.19712,1,0.67
2021-04-05 21:31:54.284 -0400,0,0,0,0,0,0,0,0,0,15253.86912716667,-0.0941162109375,-0.2542266845703125,-1.01824951171875,15253.84398016667,-1.731181597240094,-0.08617486916758114,0.2381419826963845,-0.002455382375046611,-0.09563132375478745,0.05635101720690727,0.006567142903804779,-0.01868018507957458,-0.06214731931686401,XArbitraryZVertical,0.04435919733471348,-0.1180944651027528,-0.7587015303282945,0.6391070512108796,-0.0836392268538475,-0.2358974516391754,-0.9681718945503235,0,0,0,-1,-1,15223.454926625,unknown,2,2021-04-05 21:31:23.869 -0400,2021-04-05 19:23:45.401 -0400,693,1.413524,0,0,510.951,0,0,2021-04-05 21:31:23.868 -0400,639365512.1812072,0,-2.58,98.19712,1,0.67
2021-04-05 21:31:54.320 -0400,0,0,0,0,0,0,0,0,0,15253.90431416667,-0.107635498046875,-0.2526092529296875,-0.959442138671875,15253.90431416667,-1.72709291169945,-0.08770580372984675,0.2460016797501458,0.143962100148201,0.005777629092335701,0.001036494038999081,-0.02167205512523651,-0.009386450052261353,0.0001167058944702148,XArbitraryZVertical,0.04656885283871531,-0.1214429574409487,-0.7571780910532355,0.6401282493034097,-0.08495630323886871,-0.243527963757515,-0.9661659002304077,0,0,0,-1,-1,15223.454926625,unknown,2,2021-04-05 21:31:23.869 -0400,2021-04-05 19:23:45.401 -0400,693,1.413524,0,0,510.951,0,0,2021-04-05 21:31:23.868 -0400,639365512.1812072,0,-2.58,98.19712,1,0.67
2021-04-05 21:31:54.354 -0400,0,0,0,0,0,0,0,0,0,15253.93953116667,-0.0902862548828125,-0.237335205078125,-0.93218994140625,15253.93449616667,-1.72817460474375,-0.08779003258088715,0.2496363120488712,0.1100145876407623,-0.05053161084651947,-0.06998478621244431,-0.01443617045879364,0.00219377875328064,0.02609217166900635,XArbitraryZVertical,0.04764863135768221,-0.1228588154185405,-0.7574068902298842,0.6395077124297533,-0.08495951443910599,-0.2470515668392181,-0.9652706384658813,0,0,0,-1,-1,15223.454926625,unknown,2,2021-04-05 21:31:23.869 -0400,2021-04-05 19:23:45.401 -0400,693,1.413524,0,0,510.951,0,0,2021-04-05 21:31:23.868 -0400,639365512.1812072,0,-2.58,98.19712,1,0.67
2021-04-05 21:31:54.441 -0400,0,0,0,0,0,0,0,0,0,15253.97471816667,-0.08331298828125,-0.221160888671875,-0.9314117431640625,15253.96467716667,-1.729950912332766,-0.08923898595414897,0.2523859352992286,0.06952201575040817,-0.06185168400406837,-0.06018014252185822,0.00339624285697937,0.02278631925582886,0.03790682554244995,XArbitraryZVertical,0.04788007754582872,-0.1243959754540709,-0.7579174315011875,0.638587716828981,-0.08629719167947769,-0.2497150152921677,-0.9644662737846375,0,0,0,-1,-1,15223.454926625,unknown,2,2021-04-05 21:31:23.869 -0400,2021-04-05 19:23:45.401 -0400,693,1.413524,0,0,510.951,0,0,2021-04-05 21:31:23.868 -0400,639365512.1812072,0,-2.58,98.19712,1,0.67
2021-04-05 21:31:54.446 -0400,0,0,0,0,0,0,0,0,0,15254.00990516667,-0.065185546875,-0.2332000732421875,-0.9683380126953125,15253.99482916667,-1.731491079885882,-0.09079035055649062,0.2538065447559277,0.009850796312093735,-0.02731200307607651,-0.05353111028671265,0.008156023919582367,0.02596220374107361,0.01564323902130127,XArbitraryZVertical,0.04765524294154611,-0.1254611036101299,-0.7583983256517305,0.6378247266797662,-0.08776107430458069,-0.2510903775691986,-0.9639769792556763,0,0,0,-1,-1,15223.454926625,unknown,2,2021-04-05 21:31:23.869 -0400,2021-04-05 19:23:45.401 -0400,693,1.413524,0,0,510.951,0,0,2021-04-05 21:31:23.868 -0400,639365512.1812072,0,-2.58,98.19712,1,0.67
