loggingTime(txt),locationTimestamp_since1970(s),locationLatitude(WGS84),locationLongitude(WGS84),locationAltitude(m),locationSpeed(m/s),locationCourse(°),locationVerticalAccuracy(m),locationHorizontalAccuracy(m),locationFloor(Z),accelerometerTimestamp_sinceReboot(s),accelerometerAccelerationX(G),accelerometerAccelerationY(G),accelerometerAccelerationZ(G),motionTimestamp_sinceReboot(s),motionYaw(rad),motionRoll(rad),motionPitch(rad),motionRotationRateX(rad/s),motionRotationRateY(rad/s),motionRotationRateZ(rad/s),motionUserAccelerationX(G),motionUserAccelerationY(G),motionUserAccelerationZ(G),motionAttitudeReferenceFrame(txt),motionQuaternionX(R),motionQuaternionY(R),motionQuaternionZ(R),motionQuaternionW(R),motionGravityX(G),motionGravityY(G),motionGravityZ(G),motionMagneticFieldX(µT),motionMagneticFieldY(µT),motionMagneticFieldZ(µT),motionHeading(°),motionMagneticFieldCalibrationAccuracy(Z),activityTimestamp_sinceReboot(s),activity(txt),activityActivityConfidence(Z),activityActivityStartDate(txt),pedometerStartDate(txt),pedometerNumberofSteps(N),pedometerAverageActivePace(s/m),pedometerCurrentPace(s/m),pedometerCurrentCadence(steps/s),pedometerDistance(m),pedometerFloorAscended(N),pedometerFloorDescended(N),pedometerEndDate(txt),altimeterTimestamp_sinceReboot(s),altimeterReset(bool),altimeterRelativeAltitude(m),altimeterPressure(kPa),batteryState(N),batteryLevel(R)
2021-04-05 21:27:42.595 -0400,0,0,0,0,0,0,0,0,0,15125.09728479167,-0.07476806640625,-0.183837890625,-0.9863433837890625,15125.08724479167,-1.539685596408299,-0.07212905907056388,0.1888200601710953,-0.02959086373448372,-0.002036108635365963,0.04753866046667099,0.00242634117603302,-0.0008070170879364014,7.343292236328125e-05,XArbitraryZVertical,0.04265911010356291,-0.09134540431502097,-0.6949127821369271,0.7119918772642529,-0.07078564912080765,-0.1877000629901886,-0.9796724319458008,0,0,0,-1,-1,15035.623568125,unknown,2,2021-04-05 21:26:13.123 -0400,2021-04-05 19:23:45.401 -0400,693,1.405414,0,0,510.951,0,0,2021-04-05 21:25:29.361 -0400,639365260.6549147,0,-2.32,98.194,1,0.68
2021-04-05 21:27:42.630 -0400,0,0,0,0,0,0,0,0,0,15125.13250179167,-0.076080322265625,-0.189483642578125,-0.9730682373046875,15125.11739579167,-1.538296748139385,-0.07299693418190425,0.1882022187521606,0.01206253841519356,-0.02977678179740906,0.05216069146990776,-0.0082048699259758,0.003575712442398071,-5.59687614440918e-05,XArbitraryZVertical,0.04219962872268204,-0.09141191459564475,-0.694448808472381,0.7124632776233949,-0.07164429873228073,-0.1870931684970856,-0.9797261357307434,0,0,0,-1,-1,15035.623568125,unknown,2,2021-04-05 21:26:13.123 -0400,2021-04-05 19:23:45.401 -0400,693,1.405414,0,0,510.951,0,0,2021-04-05 21:25:29.361 -0400,639365260.6549147,0,-2.32,98.194,1,0.68
2021-04-05 21:27:42.677 -0400,0,0,0,0,0,0,0,0,0,15125.16767625,-0.0832977294921875,-0.1944427490234375,-0.987945556640625,15125.14756525,-1.536665850257246,-0.074556556794016,0.1881080530287974,-0.01773324050009251,-0.04242077469825745,0.05168142542243004,-0.003700189292430878,-0.003062799572944641,0.006837189197540283,XArbitraryZVertical,0.04169926221771503,-0.09190103479663925,-0.6939021695094687,0.7129622938931933,-0.07317353039979935,-0.1870006620883942,-0.9796307682991028,0,0,0,-1,-1,15035.623568125,unknown,2,2021-04-05 21:26:13.123 -0400,2021-04-05 19:23:45.401 -0400,693,1.405414,0,0,510.951,0,0,2021-04-05 21:25:29.361 -0400,639365260.6549147,0,-2.32,98.194,1,0.68
2021-04-05 21:27:42.700 -0400,0,0,0,0,0,0,0,0,0,15125.20286325,-0.072509765625,-0.1869049072265625,-0.9889068603515625,15125.17771625,-1.536137228737478,-0.0754097558680599,0.1870574045817976,-0.02274760603904724,-0.01012279745191336,-0.005494995974004269,-0.00927358865737915,-0.008474305272102356,-0.008182227611541748,XArbitraryZVertical,0.04105040686898405,-0.09183245986029306,-0.6937514140496777,0.7131554475408495,-0.07402408123016357,-0.1859684437513351,-0.9797633290290833,0,0,0,-1,-1,15035.623568125,unknown,2,2021-04-05 21:26:13.123 -0400,2021-04-05 19:23:45.401 -0400,693,1.405414,0,0,510.951,0,0,2021-04-05 21:25:29.361 -0400,639365260.6549147,0,-2.32,98.194,1,0.68
2021-04-05 21:27:42.760 -0400,0,0,0,0,0,0,0,0,0,15125.23808025,-0.0697784423828125,-0.17681884765625,-0.9895477294921875,15125.20789825,-1.5365486143283,-0.07585122644771831,0.1872284546318659,0.03021319210529327,-0.02307256311178207,-0.02420453354716301,5.240738391876221e-05,-0.001348227262496948,-0.008460342884063721,XArbitraryZVertical,0.04093974772620747,-0.09205719614815919,-0.6939039031340988,0.7129844664469215,-0.07445420324802399,-0.1861364990472794,-0.9796988368034363,0,0,0,-1,-1,15035.623568125,unknown,2,2021-04-05 21:26:13.123 -0400,2021-04-05 19:23:45.401 -0400,693,1.405414,0,0,510.951,0,0,2021-04-05 21:25:29.361 -0400,639365260.6549147,0,-2.32,98.194,1,0.68
2021-04-05 21:27:42.787 -0400,0,0,0,0,0,0,0,0,0,15125.27326725,-0.064300537109375,-0.1923065185546875,-0.9820556640625,15125.26823125,-1.536963033398187,-0.07651363686625209,0.1908614592725093,0.03990777581930161,0.003118398133665323,-0.002379147335886955,-0.0004494637250900269,0.009590029716491699,0.005366265773773193,XArbitraryZVertical,0.0419945782651178,-0.09355304529441717,-0.6939957939008558,0.7126389172058597,-0.0750509575009346,-0.1897047758102417,-0.9789685606956482,0,0,0,-1,-1,15035.623568125,unknown,2,2021-04-05 21:26:13.123 -0400,2021-04-05 19:23:45.401 -0400,693,1.405414,0,0,510.951,0,0,2021-04-05 21:25:29.361 -0400,639365260.6549147,0,-2.32,98.194,1,0.68
2021-04-05 21:27:42.806 -0400,0,0,0,0,0,0,0,0,0,15125.30845425,-0.078460693359375,-0.188812255859375,-0.9612884521484375,15125.29841325,-1.536696160249323,-0.07636936816698311,0.1913862420039769,0.01716435700654984,0.03148763999342918,0.02872035093605518,0.004971154034137726,0.006778836250305176,0.007246077060699463,XArbitraryZVertical,0.04224545193352001,-0.09367673777015915,-0.6938874496954646,0.7127132094350171,-0.07490211725234985,-0.1902200132608414,-0.978879988193512,0,0,0,-1,-1,15035.623568125,unknown,2,2021-04-05 21:26:13.123 -0400,2021-04-05 19:23:45.401 -0400,693,1.405414,0,0,510.951,0,0,2021-04-05 21:25:29.361 -0400,639365260.6549147,0,-2.32,98.194,1,0.68
2021-04-05 21:27:42.841 -0400,0,0,0,0,0,0,0,0,0,15125.34367125,-0.0665130615234375,-0.1911773681640625,-0.9780120849609375,15125.32859525,-1.53601370549192,-0.07557467463113697,0.1913902494551334,-0.02041254565119743,0.003096068976446986,0.006507338490337133,-4.878640174865723e-05,-0.005958303809165955,0.01822984218597412,XArbitraryZVertical,0.04255446941280169,-0.09338039474109502,-0.6936272785849117,0.7129869736288248,-0.07412412762641907,-0.1902239471673965,-0.9789384603500366,0,0,0,-1,-1,15035.623568125,unknown,2,2021-04-05 21:26:13.123 -0400,2021-04-05 19:23:45.401 -0400,693,1.405414,0,0,510.951,0,0,2021-04-05 21:25:29.361 -0400,639365260.6549147,0,-2.32,98.194,1,0.68
2021-04-05 21:27:42.876 -0400,0,0,0,0,0,0,0,0,0,15125.37885825,-0.08935546875,-0.1919403076171875,-1.001022338867188,15125.35874725,-1.535950606229382,-0.0760086220408181,0.1893728705681292,-0.05373154208064079,-0.0227792039513588,0.02068795636296272,0.007866561412811279,0.0004073232412338257,-0.002845108509063721,XArbitraryZVertical,0.04168262968079407,-0.0928393273325623,-0.6936531096470682,0.7130840637001161,-0.07457792013883591,-0.1882430166006088,-0.9792868494987488,0,0,0,-1,-1,15035.623568125,unknown,2,2021-04-05 21:26:13.123 -0400,2021-04-05 19:23:45.401 -0400,693,1.405414,0,0,510.951,0,0,2021-04-05 21:25:29.361 -0400,639365260.6549147,0,-2.32,98.194,1,0.68
2021-04-05 21:27:42.911 -0400,0,0,0,0,0,0,0,0,0,15125.41407525,-0.0693206787109375,-0.19482421875,-0.9875335693359375,15125.38892825,-1.535570367611856,-0.07607772433713804,0.1891052929330043,0.02697142213582993,-0.002227651886641979,0.005354339722543955,-0.01470598578453064,-0.003960087895393372,-0.0216904878616333,XArbitraryZVertical,0.04158022383459022,-0.09276396357798816,-0.6935240979481675,0.713225177488367,-0.07464941591024399,-0.1879802197217941,-0.9793318510055542,0,0,0,-1,-1,15035.623568125,unknown,2,2021-04-05 21:26:13.123 -0400,2021-04-05 19:23:45.401 -0400,693,1.405414,0,0,510.951,0,0,2021-04-05 21:25:29.361 -0400,639365260.6549147,0,-2.32,98.194,1,0.68
2021-04-05 21:27:42.947 -0400,0,0,0,0,0,0,0,0,0,15125.44926225,-0.0736083984375,-0.19573974609375,-0.9718475341796875,15125.44926225,-1.534167159307535,-0.07651200103461209,0.1915332024497707,0.00981629453599453,0.003169653937220573,0.01466638129204512,0.0007751360535621643,0.001658841967582703,0.01292955875396729,XArbitraryZVertical,0.04236726169069171,-0.09372465806645196,-0.6929858293806311,0.7135764914859247,-0.07503960281610489,-0.1903642863035202,-0.9788414239883423,0,0,0,-1,-1,15035.623568125,unknown,2,2021-04-05 21:26:13.123 -0400,2021-04-05 19:23:45.401 -0400,693,1.405414,0,0,510.951,0,0,2021-04-05 21:25:29.361 -0400,639365260.6549147,0,-2.32,98.194,1,0.68
2021-04-05 21:27:42.982 -0400,0,0,0,0,0,0,0,0,0,15125.48444825,-0.0714569091796875,-0.183502197265625,-0.972503662109375,15125.47944425,-1.533811396798934,-0.07652682289990197,0.1917816246617691,0.01386688463389874,0.02250473573803902,0.02248400822281837,6.886571645736694e-05,0.002802997827529907,0.002322196960449219,XArbitraryZVertical,0.04246807505650407,-0.09380782222181584,-0.6928543669109331,0.7136871478557785,-0.07505048811435699,-0.1906081587076187,-0.9787930846214294,0,0,0,-1,-1,15035.623568125,unknown,2,2021-04-05 21:26:13.123 -0400,2021-04-05 19:23:45.401 -0400,693,1.405414,0,0,510.951,0,0,2021-04-05 21:25:29.361 -0400,639365260.6549147,0,-2.32,98.194,1,0.68
2021-04-05 21:27:43.018 -0400,0,0,0,0,0,0,0,0,0,15125.51966625,-0.0846099853515625,-0.1899871826171875,-0.987548828125,15125.50959525,-1.533302149814218,-0.07629487990901906,0.1923132404429321,0.0001496635377407074,0.007056127302348614,-0.01174128986895084,-0.0080547034740448,0.005064323544502258,0.00826561450958252,XArbitraryZVertical,0.04276338819724114,-0.09389693184527048,-0.6926572914850313,0.713849079263144,-0.07481572777032852,-0.1911299973726273,-0.97870934009552,0,0,0,-1,-1,15035.623568125,unknown,2,2021-04-05 21:26:13.123 -0400,2021-04-05 19:23:45.401 -0400,693,1.405414,0,0,510.951,0,0,2021-04-05 21:25:29.361 -0400,639365260.6549147,0,-2.32,98.194,1,0.68
2021-04-05 21:27:43.052 -0400,0,0,0,0,0,0,0,0,0,15125.55485325,-0.07745361328125,-0.1907501220703125,-0.981842041015625,15125.53977725,-1.533981510236716,-0.0763295076761233,0.1919745737810623,0.01489821635186672,-0.02380988746881485,-0.01151067763566971,-0.003087282180786133,-0.001020669937133789,-0.01143264770507812,XArbitraryZVertical,0.04259779722289603,-0.09380736023204939,-0.6929071035419223,0.7136283655760723,-0.07485455274581909,-0.1907975673675537,-0.9787712097167969,0,0,0,-1,-1,15035.623568125,unknown,2,2021-04-05 21:26:13.123 -0400,2021-04-05 19:23:45.401 -0400,693,1.405414,0,0,510.951,0,0,2021-04-05 21:25:29.361 -0400,639365260.6549147,0,-2.32,98.194,1,0.68
2021-04-05 21:27:43.088 -0400,0,0,0,0,0,0,0,0,0,15125.59007025,-0.08197021484375,-0.200408935546875,-0.9842987060546875,15125.56992825,-1.533628160473471,-0.07679765799410025,0.193166797007696,0.04217123612761497,-0.01241606660187244,0.01198787428438663,-0.002814427018165588,-0.004595950245857239,-0.004065871238708496,XArbitraryZVertical,0.04288070303955651,-0.0943767090944997,-0.6927676386316911,0.7136717301298523,-0.07529525458812714,-0.1919677555561066,-0.9785085916519165,0,0,0,-1,-1,15035.623568125,unknown,2,2021-04-05 21:26:13.123 -0400,2021-04-05 19:23:45.401 -0400,693,1.405414,0,0,510.951,0,0,2021-04-05 21:25:29.361 -0400,639365260.6549147,0,-2.32,98.194,1,0.68
2021-04-05 21:27:43.123 -0400,0,0,0,0,0,0,0,0,0,15125.62525725,-0.073333740234375,-0.1897125244140625,-0.97845458984375,15125.60011025,-1.53353880309247,-0.07754890687573154,0.1936131995595768,0.01216005347669125,-0.01051983423531055,-0.01005081553012133,-0.00594647228717804,-0.008003115653991699,-0.005932509899139404,XArbitraryZVertical,0.04278515369576914,-0.09479629644190402,-0.6927430755440855,0.713645628930775,-0.07602369040250778,-0.1924058347940445,-0.9783661961555481,0,0,0,-1,-1,15035.623568125,unknown,2,2021-04-05 21:26:13.123 -0400,2021-04-05 19:23:45.401 -0400,693,1.405414,0,0,510.951,0,0,2021-04-05 21:25:29.361 -0400,639365260.6549147,0,-2.32,98.194,1,0.68
2021-04-05 21:27:43.159 -0400,0,0,0,0,0,0,0,0,0,15125.66044325,-0.073455810546875,-0.1897430419921875,-0.970489501953125,15125.66044325,-1.533107437736211,-0.07842990622477389,0.195173199778153,0.004923013970255852,-0.01404311414808035,0.005435116589069366,0.006839469075202942,0.003903478384017944,0.006196677684783936,XArbitraryZVertical,0.04306132891443924,-0.0956374185971794,-0.6925773820154861,0.7136777342217432,-0.07686198502779007,-0.1939364522695541,-0.9779984354972839,0,0,0,-1,-1,15035.623568125,unknown,2,2021-04-05 21:26:13.123 -0400,2021-04-05 19:23:45.401 -0400,693,1.405414,0,0,510.951,0,0,2021-04-05 21:25:29.361 -0400,639365260.6549147,0,-2.32,98.194,1,0.68
2021-04-05 21:27:43.193 -0400,0,0,0,0,0,0,0,0,0,15125.69566125,-0.062744140625,-0.1924591064453125,-0.974334716796875,15125.69062525,-1.533080728002119,-0.07860641572580945,0.1951726747340252,-0.003066391916945577,0.002998064737766981,0.000725532416254282,0.002083517611026764,0.001919344067573547,0.005206644535064697,XArbitraryZVertical,0.04300129276256965,-0.09569965443133754,-0.6925716601493334,0.7136785103961812,-0.07703462243080139,-0.1939359307289124,-0.9779849052429199,0,0,0,-1,-1,15035.623568125,unknown,2,2021-04-05 21:26:13.123 -0400,2021-04-05 19:23:45.401 -0400,693,1.405414,0,0,510.951,0,0,2021-04-05 21:25:29.361 -0400,639365260.6549147,0,-2.32,98.194,1,0.68
2021-04-05 21:27:43.228 -0400,0,0,0,0,0,0,0,0,0,15125.73084725,-0.0678558349609375,-0.1889190673828125,-0.9771270751953125,15125.72080725,-1.53270024630648,-0.07863899652402889,0.194976025450595,-0.01396581158041954,0.005667166318744421,0.01859898865222931,0.01136519014835358,0.001207619905471802,0.006325483322143555,XArbitraryZVertical,0.04293750814157411,-0.0956355648122889,-0.6924404427508944,0.7138181941776021,-0.0770694762468338,-0.1937430202960968,-0.9780204296112061,0,0,0,-1,-1,15035.623568125,unknown,2,2021-04-05 21:26:13.123 -0400,2021-04-05 19:23:45.401 -0400,693,1.405414,0,0,510.951,0,0,2021-04-05 21:25:29.361 -0400,639365260.6549147,0,-2.32,98.194,1,0.68
2021-04-05 21:27:43.310 -0400,0,0,0,0,0,0,0,0,0,15125.76603425,-0.08203125,-0.1888275146484375,-0.9760284423828125,15125.75095825,-1.532020124959629,-0.07867360667682068,0.1943396501283351,0.0006466535851359367,-0.01047730445861816,0.03450989350676537,0.005732454359531403,0.002170160412788391,0.0004640817642211914,XArbitraryZVertical,0.04272915858184909,-0.0954148084820322,-0.6922108467606068,0.7140829510733725,-0.07711300253868103,-0.1931186616420746,-0.9781404733657837,0,0,0,-1,-1,15035.623568125,unknown,2,2021-04-05 21:26:13.123 -0400,2021-04-05 19:23:45.401 -0400,693,1.405414,0,0,510.951,0,0,2021-04-05 21:25:29.361 -0400,639365260.6549147,0,-2.32,98.194,1,0.68
2021-04-05 21:27:43.315 -0400,0,0,0,0,0,0,0,0,0,15125.80125125,-0.085052490234375,-0.1924591064453125,-0.9730377197265625,15125.78114025,-1.530979033207228,-0.07861606993636365,0.1945050719734823,0.005651243962347507,0.009754524566233158,0.02960465103387833,-0.005739927291870117,0.002683430910110474,-0.0006619691848754883,XArbitraryZVertical,0.04285825160382243,-0.09542877068543063,-0.6918345844187781,0.7144378638203019,-0.0770542100071907,-0.193280965089798,-0.978113055229187,0,0,0,-1,-1,15035.623568125,unknown,2,2021-04-05 21:26:13.123 -0400,2021-04-05 19:23:45.401 -0400,693,1.405414,0,0,510.951,0,0,2021-04-05 21:25:29.361 -0400,639365263.2291514,0,-2.29,98.19355,1,0.68
2021-04-05 21:27:43.334 -0400,0,0,0,0,0,0,0,0,0,15125.83643825,-0.081878662109375,-0.19891357421875,-0.9783782958984375,15125.81129225,-1.530331484613373,-0.07832050860180008,0.1944354279732878,0.01115081645548344,-0.01084678806364536,0.01835038140416145,-0.008286252617835999,0.0007535368204116821,0.005111515522003174,XArbitraryZVertical,0.04296628066299598,-0.09528538668862023,-0.6915982477475877,0.7146792572310345,-0.07676617056131363,-0.193212628364563,-0.9781491756439209,0,0,0,-1,-1,15035.623568125,unknown,2,2021-04-05 21:26:13.123 -0400,2021-04-05 19:23:45.401 -0400,693,1.405414,0,0,510.951,0,0,2021-04-05 21:25:29.361 -0400,639365263.2291514,0,-2.29,98.19355,1,0.68
2021-04-05 21:27:43.369 -0400,0,0,0,0,0,0,0,0,0,15125.87165625,-0.077880859375,-0.1967010498046875,-0.9806976318359375,15125.84147425,-1.530287922650102,-0.07835899564886394,0.1944497299616074,-0.01777100190520287,-0.005933932028710842,-0.01188851334154606,-0.00582268089056015,-0.007868915796279907,-0.002310037612915039,XArbitraryZVertical,0.04296019319776827,-0.09530311767528066,-0.691583230234977,0.7146917180463817,-0.07680360227823257,-0.1932266652584076,-0.9781434535980225,0,0,0,-1,-1,15035.623568125,unknown,2,2021-04-05 21:26:13.123 -0400,2021-04-05 19:23:45.401 -0400,693,1.405414,0,0,510.951,0,0,2021-04-05 21:25:29.361 -0400,639365263.2291514,0,-2.29,98.19355,1,0.68
2021-04-05 21:27:43.404 -0400,0,0,0,0,0,0,0,0,0,15125.90684225,-0.080841064453125,-0.1930999755859375,-0.976226806640625,15125.90180725,-1.52995101158788,-0.07920421630233331,0.1943460623171711,0.0233234167098999,-0.001142310909926891,0.01643583737313747,-0.001820549368858337,0.001032054424285889,-0.004323720932006836,XArbitraryZVertical,0.04264669897876958,-0.09556240049974565,-0.6914829342463158,0.7147729225857472,-0.07763190567493439,-0.1931249499320984,-0.9780981540679932,0,0,0,-1,-1,15035.623568125,unknown,2,2021-04-05 21:26:13.123 -0400,2021-04-05 19:23:45.401 -0400,693,1.405414,0,0,510.951,0,0,2021-04-05 21:25:29.361 -0400,639365263.2291514,0,-2.29,98.19355,1,0.68
2021-04-05 21:27:43.440 -0400,0,0,0,0,0,0,0,0,0,15125.94202925,-0.0805816650390625,-0.1956024169921875,-0.9754638671875,15125.93198925,-1.529228884281431,-0.07987711172097241,0.1953280716810782,0.01148447766900063,-0.01936101727187634,0.01233175490051508,-0.001101285219192505,0.000866323709487915,0.008663713932037354,XArbitraryZVertical,0.04280233198527628,-0.09612419509090137,-0.6912201762675871,0.7149424984554278,-0.07827487587928772,-0.1940883845090866,-0.9778562188148499,0,0,0,-1,-1,15035.623568125,unknown,2,2021-04-05 21:26:13.123 -0400,2021-04-05 19:23:45.401 -0400,693,1.405414,0,0,510.951,0,0,2021-04-05 21:25:29.361 -0400,639365263.2291514,0,-2.29,98.19355,1,0.68
2021-04-05 21:27:43.474 -0400,0,0,0,0,0,0,0,0,0,15125.97724625,-0.0715789794921875,-0.1966094970703125,-0.9821929931640625,15125.96214025,-1.52906622887852,-0.08041068692576908,0.1951997724862988,-0.02353645861148834,-0.010491993278265,-0.004202930256724358,0.0006736814975738525,-9.876489639282227e-05,0.005442261695861816,XArbitraryZVertical,0.04257954165987481,-0.09626748572193926,-0.6911758984698568,0.7149793442881225,-0.07879862189292908,-0.1939625144004822,-0.9778391122817993,0,0,0,-1,-1,15035.623568125,unknown,2,2021-04-05 21:26:13.123 -0400,2021-04-05 19:23:45.401 -0400,693,1.405414,0,0,510.951,0,0,2021-04-05 21:25:29.361 -0400,639365263.2291514,0,-2.29,98.19355,1,0.68
2021-04-05 21:27:43.510 -0400,0,0,0,0,0,0,0,0,0,15126.01243325,-0.0744171142578125,-0.1908111572265625,-0.985015869140625,15125.99232225,-1.529075947110387,-0.08092689956453288,0.1945989690393017,-0.004950233735144138,-0.01422939170151949,0.00669935205951333,0.00855785608291626,-0.00116121768951416,-0.005941927433013916,XArbitraryZVertical,0.04218425967930664,-0.09624630247391015,-0.6912018267625026,0.7149805304466439,-0.07931278645992279,-0.1933730840682983,-0.9779142737388611,0,0,0,-1,-1,15035.623568125,unknown,2,2021-04-05 21:26:13.123 -0400,2021-04-05 19:23:45.401 -0400,693,1.405414,0,0,510.951,0,0,2021-04-05 21:25:29.361 -0400,639365263.2291514,0,-2.29,98.19355,1,0.68
2021-04-05 21:27:43.545 -0400,0,0,0,0,0,0,0,0,0,15126.04762025,-0.080047607421875,-0.1983489990234375,-0.989471435546875,15126.02250425,-1.528409896849224,-0.08135316888998578,0.1948705021893146,0.01861613430082798,-0.01160771492868662,0.03061705082654953,0.00530831515789032,0.002828329801559448,-0.007187843322753906,XArbitraryZVertical,0.04216688028657041,-0.09647772098531109,-0.6909675063126391,0.7151768026813894,-0.07972536981105804,-0.1936394870281219,-0.9778280258178711,0,0,0,-1,-1,15035.623568125,unknown,2,2021-04-05 21:26:13.123 -0400,2021-04-05 19:23:45.401 -0400,693,1.405414,0,0,510.951,0,0,2021-04-05 21:25:29.361 -0400,639365263.2291514,0,-2.29,98.19355,1,0.68
2021-04-05 21:27:43.581 -0400,0,0,0,0,0,0,0,0,0,15126.08283725,-0.0854949951171875,-0.19482421875,-0.9869384765625,15126.08283725,-1.527150130073826,-0.08193506795960219,0.1966188341062309,0.02407265082001686,0.0006449772045016289,0.005146030336618423,-0.005472555756568909,-0.001880675554275513,-0.009877383708953857,XArbitraryZVertical,0.04265707251874166,-0.09725791667881201,-0.6904958687046777,0.7154974646187336,-0.08026652038097382,-0.1953544318675995,-0.9774425625801086,0,0,0,-1,-1,15035.623568125,unknown,2,2021-04-05 21:26:13.123 -0400,2021-04-05 19:23:45.401 -0400,693,1.405414,0,0,510.951,0,0,2021-04-05 21:25:29.361 -0400,639365263.2291514,0,-2.29,98.19355,1,0.68
2021-04-05 21:27:43.615 -0400,0,0,0,0,0,0,0,0,0,15126.11802425,-0.085968017578125,-0.1988983154296875,-0.9644927978515625,15126.11298925,-1.526712081021815,-0.08198617952038846,0.1973391780126281,0.04562292620539665,-0.01780069246888161,0.02037281915545464,-0.004366032779216766,-0.002059265971183777,-0.001873791217803955,XArbitraryZVertical,0.04292048881927245,-0.09751339790598516,-0.6903263790245499,0.7156105138905664,-0.08030493557453156,-0.1960608512163162,-0.9772979617118835,0,0,0,-1,-1,15035.623568125,unknown,2,2021-04-05 21:26:13.123 -0400,2021-04-05 19:23:45.401 -0400,693,1.405414,0,0,510.951,0,0,2021-04-05 21:25:29.361 -0400,639365263.2291514,0,-2.29,98.19355,1,0.68
2021-04-05 21:27:43.651 -0400,0,0,0,0,0,0,0,0,0,15126.15322625,-0.0911407470703125,-0.1949310302734375,-0.9697723388671875,15126.14315525,-1.526390735931481,-0.08283827502509865,0.1985866659401175,0.01548008434474468,-0.01705623604357243,-0.01554951071739197,-0.0109236016869545,-0.00144648551940918,0.01528424024581909,XArbitraryZVertical,0.0430920025927903,-0.09823824464496918,-0.6902056216658965,0.7156176345323441,-0.08111735433340073,-0.1972839683294296,-0.9769846796989441,0,0,0,-1,-1,15035.623568125,unknown,2,2021-04-05 21:26:13.123 -0400,2021-04-05 19:23:45.401 -0400,693,1.405414,0,0,510.951,0,0,2021-04-05 21:25:29.361 -0400,639365263.2291514,0,-2.29,98.19355,1,0.68
2021-04-05 21:27:43.686 -0400,0,0,0,0,0,0,0,0,0,15126.18841325,-0.0814208984375,-0.1945953369140625,-0.9844512939453125,15126.17333725,-1.527081955605762,-0.08318211959859914,0.1981399306719057,-0.01801931858062744,-0.009885386563837528,-0.02762536332011223,-0.004568383097648621,0.00170135498046875,0.002648711204528809,XArbitraryZVertical,0.04277828070090486,-0.09822321937309619,-0.6904689015311641,0.7153845199946072,-0.08146059513092041,-0.1968459933996201,-0.9770444631576538,0,0,0,-1,-1,15035.623568125,unknown,2,2021-04-05 21:26:13.123 -0400,2021-04-05 19:23:45.401 -0400,693,1.405414,0,0,510.951,0,0,2021-04-05 21:25:29.361 -0400,639365263.2291514,0,-2.29,98.19355,1,0.68
2021-04-05 21:27:43.721 -0400,0,0,0,0,0,0,0,0,0,15126.22360025,-0.080352783203125,-0.20062255859375,-0.97283935546875,15126.20348925,-1.527760222551964,-0.08321365896818191,0.1981612555019359,0.02219323813915253,-0.004241472110152245,-0.01788961328566074,0.001413002610206604,0.001264482736587524,-0.008207082748413086,XArbitraryZVertical,0.04274176153623214,-0.09825629901980519,-0.6907117361576793,0.7151477146492867,-0.08149106055498123,-0.196866899728775,-0.9770376682281494,0,0,0,-1,-1,15035.623568125,unknown,2,2021-04-05 21:26:13.123 -0400,2021-04-05 19:23:45.401 -0400,693,1.405414,0,0,510.951,0,0,2021-04-05 21:25:29.361 -0400,639365263.2291514,0,-2.29,98.19355,1,0.68
2021-04-05 21:27:43.776 -0400,0,0,0,0,0,0,0,0,0,15126.25881725,-0.0745086669921875,-0.194610595703125,-0.9846649169921875,15126.23367125,-1.52831898421919,-0.08321725650119413,0.1988058840558154,-0.009941829368472099,-0.002830386627465487,-0.03296565264463425,0.00113128125667572,-0.003123700618743896,0.004071354866027832,XArbitraryZVertical,0.04294533596231741,-0.09849030138887716,-0.6908991410555584,0.7149221872869597,-0.08148401230573654,-0.1974988728761673,-0.9769107103347778,0,0,0,-1,-1,15035.623568125,unknown,2,2021-04-05 21:26:13.123 -0400,2021-04-05 19:23:45.401 -0400,693,1.405414,0,0,510.951,0,0,2021-04-05 21:25:29.361 -0400,639365263.2291514,0,-2.29,98.19355,1,0.68
2021-04-05 21:27:43.819 -0400,0,0,0,0,0,0,0,0,0,15126.29400425,-0.086090087890625,-0.1998291015625,-0.984527587890625,15126.29400425,-1.528659973680336,-0.08369514361182979,0.1987939478023019,0.03466500714421272,0.009528135880827904,0.007463596295565367,0.0004386529326438904,0.000450432300567627,-0.009545683860778809,XArbitraryZVertical,0.04275912465828328,-0.09866433404926615,-0.6910314906858719,0.7147813707651094,-0.08195105195045471,-0.1974871754646301,-0.9768739938735962,0,0,0,-1,-1,15035.623568125,unknown,2,2021-04-05 21:26:13.123 -0400,2021-04-05 19:23:45.401 -0400,693,1.405414,0,0,510.951,0,0,2021-04-05 21:25:29.361 -0400,639365263.2291514,0,-2.29,98.19355,1,0.68
2021-04-05 21:27:43.826 -0400,0,0,0,0,0,0,0,0,0,15126.32922125,-0.081207275390625,-0.2054901123046875,-0.978485107421875,15126.32418625,-1.528807876891916,-0.08342207311645293,0.1993780269073177,-0.003411359852179885,-0.002334301359951496,-0.02203650400042534,0.0002385750412940979,-0.004348129034042358,-0.0005289316177368164,XArbitraryZVertical,0.0430565946706004,-0.09876996954850002,-0.6910671785466674,0.714714545762986,-0.08167467266321182,-0.1980597227811813,-0.9767812490463257,0,0,0,-1,-1,15035.623568125,unknown,2,2021-04-05 21:26:13.123 -0400,2021-04-05 19:23:45.401 -0400,693,1.405414,0,0,510.951,0,0,2021-04-05 21:25:29.361 -0400,639365263.2291514,0,-2.29,98.19355,1,0.68
2021-04-05 21:27:43.862 -0400,0,0,0,0,0,0,0,0,0,15126.36440825,-0.0794677734375,-0.199951171875,-0.971466064453125,15126.35433725,-1.529824687086931,-0.08270263058639672,0.1991302176093187,0.001311367843300104,0.018388656899333,-0.02947100251913071,-0.005236133933067322,-0.001905471086502075,0.001043319702148438,XArbitraryZVertical,0.04316586749373848,-0.09844993999900203,-0.691419789605365,0.7144109580335742,-0.0809759646654129,-0.1978168040513992,-0.9768886566162109,0,0,0,-1,-1,15035.623568125,unknown,2,2021-04-05 21:26:13.123 -0400,2021-04-05 19:23:45.401 -0400,693,1.405414,0,0,510.951,0,0,2021-04-05 21:25:29.361 -0400,639365263.2291514,0,-2.29,98.19355,1,0.68
2021-04-05 21:27:43.897 -0400,0,0,0,0,0,0,0,0,0,15126.39959525,-0.077880859375,-0.1932220458984375,-0.9699859619140625,15126.38451925,-1.53057672408071,-0.08243503432276042,0.1991973306694571,0.005036354064941406,-0.01548640336841345,-0.01421471871435642,0.004282243549823761,-0.001229345798492432,0.007170498371124268,XArbitraryZVertical,0.04324554946366974,-0.0983936169731664,-0.6916812774204952,0.71416079696611,-0.08071345090866089,-0.1978825926780701,-0.9768970608711243,0,0,0,-1,-1,15035.623568125,unknown,2,2021-04-05 21:26:13.123 -0400,2021-04-05 19:23:45.401 -0400,693,1.405414,0,0,510.951,0,0,2021-04-05 21:25:29.361 -0400,639365263.2291514,0,-2.29,98.19355,1,0.68
2021-04-05 21:27:43.933 -0400,0,0,0,0,0,0,0,0,0,15126.43481225,-0.0831756591796875,-0.197113037109375,-0.9748992919921875,15126.41470125,-1.530712424855454,-0.0827216488171599,0.1992948615187387,-0.006513398606330156,0.004355866927653551,-0.003350651822984219,0.00184457004070282,0.003321826457977295,0.004778206348419189,XArbitraryZVertical,0.04317484143832961,-0.09853233802051342,-0.6917340124017104,0.7140948025305865,-0.08099184930324554,-0.1979781985282898,-0.9768546223640442,0,0,0,-1,-1,15035.623568125,unknown,2,2021-04-05 21:26:13.123 -0400,2021-04-05 19:23:45.401 -0400,693,1.405414,0,0,510.951,0,0,2021-04-05 21:25:29.361 -0400,639365263.2291514,0,-2.29,98.19355,1,0.68
2021-04-05 21:27:43.967 -0400,0,0,0,0,0,0,0,0,0,15126.46999925,-0.0783843994140625,-0.1941375732421875,-0.9876556396484375,15126.44485225,-1.531126526499629,-0.08253396217600202,0.198874582651983,-0.02443746104836464,0.01333965174853802,-0.01454716362059116,-0.002360239624977112,0.0004532039165496826,0.002053380012512207,XArbitraryZVertical,0.04306813961319286,-0.0983301271341602,-0.6918860379366149,0.7139818168638463,-0.08081535995006561,-0.1975662261247635,-0.9769526720046997,0,0,0,-1,-1,15035.623568125,unknown,2,2021-04-05 21:26:13.123 -0400,2021-04-05 19:23:45.401 -0400,693,1.405414,0,0,510.951,0,0,2021-04-05 21:25:29.361 -0400,639365263.2291514,0,-2.29,98.19355,1,0.68
2021-04-05 21:27:44.004 -0400,0,0,0,0,0,0,0,0,0,15126.50518525,-0.0802459716796875,-0.197296142578125,-0.986358642578125,15126.47503425,-1.531415985437873,-0.08201706942979692,0.1980734927121697,-0.01953795365989208,0.0215800441801548,0.001165353693068027,0.002457775175571442,0.004169180989265442,-0.008108258247375488,XArbitraryZVertical,0.04294453408111266,-0.0978770289654311,-0.6919939143441608,0.7139469830140943,-0.08032330870628357,-0.1967808604240417,-0.9771516919136047,0,0,0,-1,-1,15035.623568125,unknown,2,2021-04-05 21:26:13.123 -0400,2021-04-05 19:23:45.401 -0400,693,1.405414,0,0,510.951,0,0,2021-04-05 21:25:29.361 -0400,639365263.2291514,0,-2.29,98.19355,1,0.68
2021-04-05 21:27:44.038 -0400,0,0,0,0,0,0,0,0,0,15126.54040325,-0.083526611328125,-0.2000579833984375,-0.977386474609375,15126.53536725,-1.530674647080901,-0.08176757653437731,0.1975973691574267,-0.002580120693892241,0.009084370918571949,0.01568680442869663,-0.002920590341091156,-0.005147770047187805,-0.007781386375427246,XArbitraryZVertical,0.04289574216610412,-0.09760871491857699,-0.6917331514530173,0.7142393440040659,-0.08008715510368347,-0.1963140219449997,-0.9772650003433228,0,0,0,-1,-1,15035.623568125,unknown,2,2021-04-05 21:26:13.123 -0400,2021-04-05 19:23:45.401 -0400,693,1.405414,0,0,510.951,0,0,2021-04-05 21:25:29.361 -0400,639365263.2291514,0,-2.29,98.19355,1,0.68
2021-04-05 21:27:44.073 -0400,0,0,0,0,0,0,0,0,0,15126.57558925,-0.0843658447265625,-0.2023468017578125,-0.974639892578125,15126.56554925,-1.530163382236817,-0.08142866930116754,0.1978764153399627,0.01567951031029224,0.01198938768357038,0.007402210030704737,-0.004003949463367462,-0.002112314105033875,0.007556676864624023,XArbitraryZVertical,0.04313833396918672,-0.09757235957159233,-0.691537808590525,0.714418858386382,-0.07975149154663086,-0.1965876370668411,-0.9772374629974365,0,0,0,-1,-1,15035.623568125,unknown,2,2021-04-05 21:26:13.123 -0400,2021-04-05 19:23:45.401 -0400,693,1.405414,0,0,510.951,0,0,2021-04-05 21:25:29.361 -0400,639365263.2291514,0,-2.29,98.19355,1,0.68
2021-04-05 21:27:44.108 -0400,0,0,0,0,0,0,0,0,0,15126.61080725,-0.0771942138671875,-0.194488525390625,-0.9841156005859375,15126.59570125,-1.530604046931082,-0.08114921969351421,0.1974349509806443,-0.0372316986322403,0.009346138685941696,-0.02699849009513855,-0.001813337206840515,-0.002392590045928955,-0.001276314258575439,XArbitraryZVertical,0.04305458898938039,-0.0973306584210771,-0.6916978202442313,0.714301936980782,-0.07948542386293411,-0.1961547583341599,-0.9773460626602173,0,0,0,-1,-1,15035.623568125,unknown,2,2021-04-05 21:26:13.123 -0400,2021-04-05 19:23:45.401 -0400,693,1.405414,0,0,510.951,0,0,2021-04-05 21:25:29.361 -0400,639365263.2291514,0,-2.29,98.19355,1,0.68
2021-04-05 21:27:44.143 -0400,0,0,0,0,0,0,0,0,0,15126.64599425,-0.08355712890625,-0.1979522705078125,-0.974609375,15126.62588225,-1.531059654055322,-0.08069590092313192,0.196824052315755,-0.001363322138786316,0.01465478166937828,-0.001386054791510105,0.002010449767112732,0.001738548278808594,-0.008506417274475098,XArbitraryZVertical,0.04296940375220683,-0.09696901749049315,-0.6918627221132942,0.7141965181504886,-0.07905200868844986,-0.1955556869506836,-0.9775012731552124,0,0,0,-1,-1,15035.623568125,unknown,2,2021-04-05 21:26:13.123 -0400,2021-04-05 19:23:45.401 -0400,693,1.405414,0,0,510.951,0,0,2021-04-05 21:25:29.361 -0400,639365263.2291514,0,-2.29,98.19355,1,0.68
2021-04-05 21:27:44.178 -0400,0,0,0,0,0,0,0,0,0,15126.68118025,-0.0881500244140625,-0.198577880859375,-0.9751129150390625,15126.65603425,-1.530995515856563,-0.08035536888978839,0.1974934121946968,0.01928850263357162,0.008827375248074532,-0.002125398255884647,-0.004848457872867584,-0.001740187406539917,0.002788066864013672,XArbitraryZVertical,0.04333117949888573,-0.09707565866709712,-0.6918193312484436,0.714202250136759,-0.07870861142873764,-0.1962120831012726,-0.9773974418640137,0,0,0,-1,-1,15035.623568125,unknown,2,2021-04-05 21:26:13.123 -0400,2021-04-05 19:23:45.401 -0400,693,1.405414,0,0,510.951,0,0,2021-04-05 21:25:29.361 -0400,639365263.2291514,0,-2.29,98.19355,1,0.68
2021-04-05 21:27:44.215 -0400,0,0,0,0,0,0,0,0,0,15126.71639825,-0.0785369873046875,-0.1991119384765625,-0.97833251953125,15126.71639825,-1.532407048921063,-0.07964362331954727,0.1967940576623076,-0.01641303300857544,0.003575499402359128,-0.03425204008817673,-0.005502715706825256,-0.004134982824325562,-0.001353085041046143,XArbitraryZVertical,0.04325753994477174,-0.09661211878060633,-0.6923216425519304,0.7137825778345585,-0.07802382856607437,-0.1955262720584869,-0.9775897860527039,0,0,0,-1,-1,15035.623568125,unknown,2,2021-04-05 21:26:13.123 -0400,2021-04-05 19:23:45.401 -0400,693,1.405414,0,0,510.951,0,0,2021-04-05 21:25:29.361 -0400,639365263.2291514,0,-2.29,98.19355,1,0.68
2021-04-05 21:27:44.305 -0400,0,0,0,0,0,0,0,0,0,15126.75158425,-0.0753173828125,-0.1988677978515625,-0.979583740234375,15126.74654925,-1.533425491066433,-0.07935176646754138,0.1965982412957811,-0.01768560335040092,0.01241467427462339,-0.02732645906507969,0.001966461539268494,-0.0007717311382293701,-0.002512931823730469,XArbitraryZVertical,0.04323904087217121,-0.09646274528335666,-0.6926825924699513,0.7134537158264943,-0.07774154841899872,-0.1953342407941818,-0.9776506423950195,0,0,0,-1,-1,15035.623568125,unknown,2,2021-04-05 21:26:13.123 -0400,2021-04-05 19:23:45.401 -0400,693,1.405414,0,0,510.951,0,0,2021-04-05 21:25:29.361 -0400,639365263.2291514,0,-2.29,98.19355,1,0.68
2021-04-05 21:27:44.310 -0400,0,0,0,0,0,0,0,0,0,15126.78677125,-0.0716705322265625,-0.1981201171875,-0.978485107421875,15126.77673125,-1.533937449609121,-0.07974932870905255,0.1966594843149685,-0.001072116661816835,-0.01439708936959505,-0.006363885477185249,0.00294928252696991,-0.002512186765670776,0.00417327880859375,XArbitraryZVertical,0.04309862459299419,-0.09663663943289923,-0.6928725663256972,0.7132541755112062,-0.07812926173210144,-0.1953943073749542,-0.9776077270507812,0,0,0,-1,-1,15035.623568125,unknown,2,2021-04-05 21:26:13.123 -0400,2021-04-05 19:23:45.401 -0400,693,1.405414,0,0,510.951,0,0,2021-04-05 21:25:29.361 -0400,639365263.2291514,0,-2.29,98.19355,1,0.68
2021-04-05 21:27:44.319 -0400,0,0,0,0,0,0,0,0,0,15126.82198825,-0.0817108154296875,-0.1962127685546875,-0.9860992431640625,15126.80691325,-1.533696530643619,-0.08047221257352394,0.1966836993379205,-0.00766958761960268,-0.009724920615553856,0.01540815457701683,0.005852833390235901,-0.001572921872138977,-0.002174794673919678,XArbitraryZVertical,0.04286855786598685,-0.09689760286904617,-0.6928017072254818,0.7133013390440037,-0.07883556187152863,-0.195418044924736,-0.9775462746620178,0,0,0,-1,-1,15035.623568125,unknown,2,2021-04-05 21:26:13.123 -0400,2021-04-05 19:23:45.401 -0400,693,1.405414,0,0,510.951,0,0,2021-04-05 21:25:29.361 -0400,639365263.2291514,0,-2.29,98.19355,1,0.68
2021-04-05 21:27:44.354 -0400,0,0,0,0,0,0,0,0,0,15126.85717525,-0.0695648193359375,-0.191162109375,-0.983489990234375,15126.83706425,-1.533608355334685,-0.08022105936339941,0.1961692425322051,-0.02451191842556,0.01100258342921734,-0.005360622890293598,-0.004714839160442352,-0.001985937356948853,-0.009760618209838867,XArbitraryZVertical,0.0427749320544896,-0.09662937539053432,-0.692774960356947,0.7133694732917308,-0.07859808951616287,-0.1949134916067123,-0.9776661396026611,0,0,0,-1,-1,15035.623568125,unknown,2,2021-04-05 21:26:13.123 -0400,2021-04-05 19:23:45.401 -0400,693,1.405414,0,0,510.951,0,0,2021-04-05 21:25:29.361 -0400,639365263.2291514,0,-2.29,98.19355,1,0.68
2021-04-05 21:27:44.389 -0400,0,0,0,0,0,0,0,0,0,15126.89239225,-0.075775146484375,-0.1916046142578125,-0.9683685302734375,15126.86724625,-1.533394610302883,-0.08018439037037371,0.1961278183568417,0.005916494876146317,-0.0004664212465286255,0.0219174362719059,0.00899813324213028,0.003710761666297913,-0.005812883377075195,XArbitraryZVertical,0.04278306795155613,-0.09659749622350143,-0.6926987438561203,0.7134472748342895,-0.07856288552284241,-0.1948728561401367,-0.977677047252655,0,0,0,-1,-1,15035.623568125,unknown,2,2021-04-05 21:26:13.123 -0400,2021-04-05 19:23:45.401 -0400,693,1.405414,0,0,510.951,0,0,2021-04-05 21:25:29.361 -0400,639365263.2291514,0,-2.29,98.19355,1,0.68
2021-04-05 21:27:44.425 -0400,0,0,0,0,0,0,0,0,0,15126.92757925,-0.0797119140625,-0.193084716796875,-0.9684906005859375,15126.89739725,-1.532549155219296,-0.08038254919552273,0.1961433360268831,-0.0008239103481173515,-0.01223193947225809,0.02961009368300438,0.004339329898357391,0.004015892744064331,0.007489442825317383,XArbitraryZVertical,0.04276087801718358,-0.09665544176097415,-0.6924010238268656,0.7137297499277504,-0.07875637710094452,-0.1948880702257156,-0.9776584506034851,0,0,0,-1,-1,15035.623568125,unknown,2,2021-04-05 21:26:13.123 -0400,2021-04-05 19:23:45.401 -0400,693,1.405414,0,0,510.951,0,0,2021-04-05 21:25:29.361 -0400,639365263.2291514,0,-2.29,98.19355,1,0.68
2021-04-05 21:27:44.460 -0400,0,0,0,0,0,0,0,0,0,15126.96276625,-0.078033447265625,-0.1944580078125,-0.970855712890625,15126.95776125,-1.531692525033772,-0.07996064301464668,0.1953947798251457,-0.01858478598296642,0.01155678741633892,0.01510577090084553,0.003145016729831696,-0.001479104161262512,0.008445918560028076,XArbitraryZVertical,0.04267898578151388,-0.09622956269212914,-0.6921008166821641,0.7140832743319627,-0.07835552096366882,-0.1941538155078888,-0.9778367280960083,0,0,0,-1,-1,15035.623568125,unknown,2,2021-04-05 21:26:13.123 -0400,2021-04-05 19:23:45.401 -0400,693,1.405414,0,0,510.951,0,0,2021-04-05 21:25:29.361 -0400,639365263.2291514,0,-2.29,98.19355,1,0.68
2021-04-05 21:27:44.495 -0400,0,0,0,0,0,0,0,0,0,15126.99798325,-0.078460693359375,-0.1982269287109375,-0.98858642578125,15126.98791225,-1.531323438418427,-0.0797395585450721,0.1941262881813701,-0.04491230845451355,0.001758854603394866,0.01009083818644285,-0.002346411347389221,-0.001594468951225281,-0.0008135437965393066,XArbitraryZVertical,0.04231681359679944,-0.09570740253846907,-0.6919888654306993,0.7142833928154365,-0.07815888524055481,-0.1929093152284622,-0.9780987501144409,0,0,0,-1,-1,15035.623568125,unknown,2,2021-04-05 21:26:13.123 -0400,2021-04-05 19:23:45.401 -0400,693,1.405414,0,0,510.951,0,0,2021-04-05 21:25:29.361 -0400,639365263.2291514,0,-2.29,98.19355,1,0.68
2021-04-05 21:27:44.530 -0400,0,0,0,0,0,0,0,0,0,15127.03317025,-0.071868896484375,-0.1953277587890625,-0.9882049560546875,15127.01809425,-1.530818453109426,-0.079926271504579,0.1932831556062969,-0.01642488501966,0.000334370881319046,0.02736424840986729,0.0004431605339050293,-0.004603862762451172,-0.007990658283233643,XArbitraryZVertical,0.04197293711802491,-0.09547412050069927,-0.6918285763259492,0.7144900788950774,-0.07835447043180466,-0.192081943154335,-0.9782459139823914,0,0,0,-1,-1,15035.623568125,unknown,2,2021-04-05 21:26:13.123 -0400,2021-04-05 19:23:45.401 -0400,693,1.405414,0,0,510.951,0,0,2021-04-05 21:25:29.361 -0400,639365263.2291514,0,-2.29,98.19355,1,0.68
2021-04-05 21:27:44.566 -0400,0,0,0,0,0,0,0,0,0,15127.06838725,-0.080535888671875,-0.196990966796875,-0.979888916015625,15127.04824625,-1.529559321927075,-0.0802874632137351,0.1930423867587293,-0.006898602470755577,-0.01234307419508696,0.05678195878863335,0.007071554660797119,-0.00363469123840332,-0.008720636367797852,XArbitraryZVertical,0.0418214696649949,-0.09549421724612647,-0.6913907595979393,0.7149200480169576,-0.07871150225400925,-0.1918456554412842,-0.9782636165618896,0,0,0,-1,-1,15035.623568125,unknown,2,2021-04-05 21:26:13.123 -0400,2021-04-05 19:23:45.401 -0400,693,1.405414,0,0,510.951,0,0,2021-04-05 21:25:29.361 -0400,639365263.2291514,0,-2.29,98.19355,1,0.68
2021-04-05 21:27:44.601 -0400,0,0,0,0,0,0,0,0,0,15127.10357425,-0.0826568603515625,-0.192138671875,-0.97283935546875,15127.07842825,-1.527978941904969,-0.08088767065454258,0.1926414245558095,-0.01879198104143143,-0.01449957955628633,0.04552386328577995,-0.001230970025062561,-0.005538851022720337,-0.00159609317779541,XArbitraryZVertical,0.04154508023600308,-0.0955384773813451,-0.6908456790361367,0.7154569724777828,-0.07930485904216766,-0.1914521157741547,-0.9782928228378296,0,0,0,-1,-1,15035.623568125,unknown,2,2021-04-05 21:26:13.123 -0400,2021-04-05 19:23:45.401 -0400,693,1.405414,0,0,510.951,0,0,2021-04-05 21:25:29.361 -0400,639365263.2291514,0,-2.29,98.19355,1,0.68
2021-04-05 21:27:44.637 -0400,0,0,0,0,0,0,0,0,0,15127.1387725,-0.078887939453125,-0.1850433349609375,-0.9832000732421875,15127.1387725,-1.527167464875721,-0.08068568204825476,0.1910215616554946,-0.05438268557190895,0.0137038491666317,-0.001511756097897887,0.0004731416702270508,-0.0006134957075119019,-0.003545820713043213,XArbitraryZVertical,0.04106951579270343,-0.09489454128646323,-0.6905812380609389,0.7158252706436864,-0.07913214713335037,-0.1898619681596756,-0.9786166548728943,0,0,0,-1,-1,15035.623568125,unknown,2,2021-04-05 21:26:13.123 -0400,2021-04-05 19:23:45.401 -0400,693,1.405414,0,0,510.951,0,0,2021-04-05 21:25:29.361 -0400,639365263.2291514,0,-2.29,98.19355,1,0.68
2021-04-05 21:27:44.671 -0400,0,0,0,0,0,0,0,0,0,15127.1739895,-0.081695556640625,-0.1786346435546875,-0.972381591796875,15127.1689545,-1.526962179817716,-0.08033213647614953,0.1902709308824641,-0.002004988957196474,0.01358087174594402,0.02342265658080578,0.004456803202629089,0.008735537528991699,-0.002964138984680176,XArbitraryZVertical,0.04093063278663229,-0.09450669180593539,-0.6905143304130033,0.7159490252382279,-0.07879757136106491,-0.1891249418258667,-0.9787863492965698,0,0,0,-1,-1,15035.623568125,unknown,2,2021-04-05 21:26:13.123 -0400,2021-04-05 19:23:45.401 -0400,693,1.405414,0,0,510.951,0,0,2021-04-05 21:25:29.361 -0400,639365263.2291514,0,-2.29,98.19355,1,0.68
2021-04-05 21:27:44.707 -0400,0,0,0,0,0,0,0,0,0,15127.2091765,-0.0883331298828125,-0.183197021484375,-0.95330810546875,15127.1991365,-1.525956150109398,-0.08022155514612235,0.1904625625714084,-0.004617061465978622,0.01024723052978516,0.02629813738167286,-0.00363466888666153,0.005688846111297607,0.01449495553970337,XArbitraryZVertical,0.0410854658066781,-0.09451207684309687,-0.6901483174176432,0.7162923723324305,-0.0786864310503006,-0.1893131136894226,-0.9787589311599731,0,0,0,-1,-1,15035.623568125,unknown,2,2021-04-05 21:26:13.123 -0400,2021-04-05 19:23:45.401 -0400,693,1.405414,0,0,510.951,0,0,2021-04-05 21:25:29.361 -0400,639365263.2291514,0,-2.29,98.19355,1,0.68
2021-04-05 21:27:44.764 -0400,0,0,0,0,0,0,0,0,0,15127.2443635,-0.09100341796875,-0.185699462890625,-0.9432525634765625,15127.2292875,-1.525395703153085,-0.08003903202084856,0.1891833749318003,-0.06772403419017792,0.01329472661018372,0.01549755502492189,-0.007074669003486633,0.004264786839485168,0.02854388952255249,XArbitraryZVertical,0.04071327832997049,-0.09399738732718953,-0.6899672392837065,0.7165557471993758,-0.07852707803249359,-0.1880569010972977,-0.9790138602256775,0,0,0,-1,-1,15035.623568125,unknown,2,2021-04-05 21:26:13.123 -0400,2021-04-05 19:23:45.401 -0400,693,1.405414,0,0,510.951,0,0,2021-04-05 21:25:29.361 -0400,639365263.2291514,0,-2.29,98.19355,1,0.68
2021-04-05 21:27:44.794 -0400,0,0,0,0,0,0,0,0,0,15127.2795805,-0.0843963623046875,-0.1927490234375,-0.9451141357421875,15127.2594695,-1.525492983012178,-0.07926235750797457,0.1860741664538589,-0.136242538690567,0.02870772965252399,-0.01352472603321075,-0.01245831698179245,-0.00185684859752655,0.03659850358963013,XArbitraryZVertical,0.03985460460830184,-0.09265674895759224,-0.6900424352142759,0.7167062317123648,-0.07781260460615158,-0.1850022673606873,-0.9796527028083801,0,0,0,-1,-1,15035.623568125,unknown,2,2021-04-05 21:26:13.123 -0400,2021-04-05 19:23:45.401 -0400,693,1.405414,0,0,510.951,0,0,2021-04-05 21:25:29.361 -0400,639365263.2291514,0,-2.29,98.19355,1,0.68
2021-04-05 21:27:44.813 -0400,0,0,0,0,0,0,0,0,0,15127.3147675,-0.0666656494140625,-0.19171142578125,-0.9862213134765625,15127.2896205,-1.526772999004737,-0.07860012580789465,0.181097015301888,-0.2023154050111771,0.01579238101840019,-0.0481308214366436,-0.007161125540733337,-0.01264026761054993,0.03549563884735107,XArbitraryZVertical,0.03822869052806963,-0.09073958003859564,-0.6905750211851795,0.7165270572622224,-0.07723516970872879,-0.1801087558269501,-0.9806097745895386,0,0,0,-1,-1,15035.623568125,unknown,2,2021-04-05 21:26:13.123 -0400,2021-04-05 19:23:45.401 -0400,693,1.405414,0,0,510.951,0,0,2021-04-05 21:25:29.361 -0400,639365263.2291514,0,-2.29,98.19355,1,0.68
2021-04-05 21:27:44.848 -0400,0,0,0,0,0,0,0,0,0,15127.3499845,-0.053558349609375,-0.1820220947265625,-1.03424072265625,15127.3499845,-1.529982758338388,-0.07879881981964258,0.1699984054008442,-0.1426247209310532,0.009913269430398941,-0.0009324182756245136,0.01827175170183182,-0.01476390659809113,-0.04510688781738281,XArbitraryZVertical,0.03401633142374895,-0.0870604186702402,-0.6919074010944203,0.7159102609681088,-0.07758259028196335,-0.1691807806491852,-0.9825267195701599,0,0,0,-1,-1,15035.623568125,unknown,2,2021-04-05 21:26:13.123 -0400,2021-04-05 19:23:45.401 -0400,693,1.405414,0,0,510.951,0,0,2021-04-05 21:25:29.361 -0400,639365263.2291514,0,-2.29,98.19355,1,0.68
2021-04-05 21:27:44.882 -0400,0,0,0,0,0,0,0,0,0,15127.3851715,-0.0596160888671875,-0.1712188720703125,-1.040496826171875,15127.3801355,-1.529013330255787,-0.0792713276895303,0.168075558707831,-0.05710741132497787,-0.005966812372207642,0.06581927835941315,0.03209777921438217,-0.007824525237083435,-0.04988712072372437,XArbitraryZVertical,0.03320205465153312,-0.0865528697350969,-0.6915970717110037,0.7163098025028216,-0.0780724510550499,-0.1672853380441666,-0.9828124642372131,0,0,0,-1,-1,15035.623568125,unknown,2,2021-04-05 21:26:13.123 -0400,2021-04-05 19:23:45.401 -0400,693,1.405414,0,0,510.951,0,0,2021-04-05 21:25:29.361 -0400,639365263.2291514,0,-2.29,98.19355,1,0.68
2021-04-05 21:27:44.918 -0400,0,0,0,0,0,0,0,0,0,15127.4203585,-0.0770721435546875,-0.1591033935546875,-1.013946533203125,15127.4103175,-1.526824975789828,-0.07891459466181017,0.1682075464287816,0.03548337519168854,0.02641263790428638,0.07006655633449554,0.006980426609516144,-0.001316219568252563,-0.05021703243255615,XArbitraryZVertical,0.03346758341548459,-0.08643385547264627,-0.6908049824165676,0.7170757846470082,-0.07772010564804077,-0.1674154698848724,-0.9828182458877563,0,0,0,-1,-1,15035.623568125,unknown,2,2021-04-05 21:26:13.123 -0400,2021-04-05 19:23:45.401 -0400,693,1.405414,0,0,510.951,0,0,2021-04-05 21:25:29.361 -0400,639365263.2291514,0,-2.29,98.19355,1,0.68
2021-04-05 21:27:44.953 -0400,0,0,0,0,0,0,0,0,0,15127.4555755,-0.07550048828125,-0.15142822265625,-0.974334716796875,15127.4404695,-1.524779319547399,-0.07761883265746203,0.1703228995034196,0.0928448811173439,0.0423346720635891,0.06868119537830353,-0.0008057653903961182,0.01257920265197754,-0.0212213397026062,XArbitraryZVertical,0.03476702849616707,-0.08665934731266901,-0.6900171624398405,0.7177448486258508,-0.07641890645027161,-0.1695005893707275,-0.9825628399848938,0,0,0,-1,-1,15035.623568125,unknown,2,2021-04-05 21:26:13.123 -0400,2021-04-05 19:23:45.401 -0400,693,1.405414,0,0,510.951,0,0,2021-04-05 21:25:29.361 -0400,639365263.2291514,0,-2.29,98.19355,1,0.68
2021-04-05 21:27:44.988 -0400,0,0,0,0,0,0,0,0,0,15127.4907625,-0.0824127197265625,-0.1507415771484375,-0.9562225341796875,15127.4706515,-1.522794252057616,-0.07597539330649124,0.172663595209121,0.07205308228731155,0.02319865301251411,0.0553937703371048,-0.0005283579230308533,0.0210043340921402,0.01373714208602905,XArbitraryZVertical,0.03626551596408217,-0.0868355768566208,-0.6892385177628209,0.7183972807981284,-0.07477370649576187,-0.1718069463968277,-0.9822887778282166,0,0,0,-1,-1,15035.623568125,unknown,2,2021-04-05 21:26:13.123 -0400,2021-04-05 19:23:45.401 -0400,693,1.405414,0,0,510.951,0,0,2021-04-05 21:25:29.361 -0400,639365263.2291514,0,-2.29,98.19355,1,0.68
2021-04-05 21:27:45.023 -0400,0,0,0,0,0,0,0,0,0,15127.5259485,-0.0852813720703125,-0.15301513671875,-0.96002197265625,15127.5008325,-1.521483421476607,-0.0752431644712083,0.1732871272318093,0.004151684697717428,0.02088024839758873,0.02872411161661148,-0.008366301655769348,0.0216795802116394,0.02601373195648193,XArbitraryZVertical,0.03680010460587975,-0.08676185676666645,-0.6887440825533633,0.7188531313006014,-0.07404635846614838,-0.1724211722612381,-0.9822362661361694,0,0,0,-1,-1,15035.623568125,unknown,2,2021-04-05 21:26:13.123 -0400,2021-04-05 19:23:45.401 -0400,693,1.405414,0,0,510.951,0,0,2021-04-05 21:25:29.361 -0400,639365263.2291514,0,-2.29,98.19355,1,0.68
2021-04-05 21:27:45.059 -0400,0,0,0,0,0,0,0,0,0,15127.5611665,-0.0850372314453125,-0.165679931640625,-0.9878082275390625,15127.5611665,-1.520943534134143,-0.0737223851317137,0.1696769853012311,-0.04270612075924873,0.03089764714241028,0.006685287225991488,-0.01030305773019791,0.006037443876266479,-0.0007719993591308594,XArbitraryZVertical,0.03604104793679486,-0.08497051836515192,-0.6885802635723803,0.7192623547909571,-0.07259788364171982,-0.168863981962204,-0.9829621315002441,0,0,0,-1,-1,15035.623568125,unknown,2,2021-04-05 21:26:13.123 -0400,2021-04-05 19:23:45.401 -0400,693,1.405414,0,0,510.951,0,0,2021-04-05 21:25:29.361 -0400,639365263.2291514,0,-2.29,98.19355,1,0.68
2021-04-05 21:27:45.093 -0400,0,0,0,0,0,0,0,0,0,15127.5963525,-0.0837860107421875,-0.176025390625,-1.003921508789062,15127.5913175,-1.520796246248967,-0.07324388799464149,0.16833727243823,-0.02455621585249901,0.02163826487958431,-0.003248736029490829,-0.01834054291248322,-0.003843367099761963,-0.01348263025283813,XArbitraryZVertical,0.03572731131128582,-0.08433754937868453,-0.6885398811452391,0.7193911697025384,-0.07214401662349701,-0.167543351650238,-0.9832214713096619,0,0,0,-1,-1,15035.623568125,unknown,2,2021-04-05 21:26:13.123 -0400,2021-04-05 19:23:45.401 -0400,693,1.405414,0,0,510.951,0,0,2021-04-05 21:25:29.361 -0400,639365263.2291514,0,-2.29,98.19355,1,0.68
2021-04-05 21:27:45.129 -0400,0,0,0,0,0,0,0,0,0,15127.6315705,-0.07806396484375,-0.1748046875,-0.9999237060546875,15127.6214995,-1.521010143460494,-0.07331287376047654,0.1673293981147664,-0.02707252465188503,0.01598144508898258,-0.01263494789600372,-0.007014639675617218,-0.01004031300544739,-0.01832455396652222,XArbitraryZVertical,0.03532990277941783,-0.08402140459785218,-0.6886338104122082,0.7193578291757751,-0.07222417742013931,-0.1665496379137039,-0.9833844304084778,0,0,0,-1,-1,15035.623568125,unknown,2,2021-04-05 21:26:13.123 -0400,2021-04-05 19:23:45.401 -0400,693,1.405414,0,0,510.951,0,0,2021-04-05 21:25:29.361 -0400,639365263.2291514,0,-2.29,98.19355,1,0.68
2021-04-05 21:27:45.164 -0400,0,0,0,0,0,0,0,0,0,15127.6667565,-0.0727081298828125,-0.16754150390625,-0.9876251220703125,15127.6516815,-1.521634568355658,-0.07275902575198849,0.1663484297154825,-0.02871068008244038,0.03470197319984436,-0.02636028081178665,-0.005151838064193726,-0.01051938533782959,-0.01404815912246704,XArbitraryZVertical,0.03513963077167986,-0.08349755532222614,-0.6888638499539275,0.7192079303439938,-0.0716913640499115,-0.1655822992324829,-0.9835867285728455,0,0,0,-1,-1,15035.623568125,unknown,2,2021-04-05 21:26:13.123 -0400,2021-04-05 19:23:45.401 -0400,693,1.405414,0,0,510.951,0,0,2021-04-05 21:25:29.361 -0400,639365263.2291514,0,-2.29,98.19355,1,0.68
2021-04-05 21:27:45.199 -0400,0,0,0,0,0,0,0,0,0,15127.7019435,-0.0651092529296875,-0.158203125,-0.99200439453125,15127.6818325,-1.522338663664527,-0.0723585962021511,0.1659068812150193,-0.0153542272746563,0.01762437075376511,-0.01954010874032974,-0.0001235455274581909,0.0006113052368164062,-0.005127131938934326,XArbitraryZVertical,0.0350885548267116,-0.08321479405978877,-0.6891168241677205,0.7190008057876796,-0.07130277901887894,-0.1651468276977539,-0.9836881756782532,0,0,0,-1,-1,15035.623568125,unknown,2,2021-04-05 21:26:13.123 -0400,2021-04-05 19:23:45.401 -0400,693,1.405414,0,0,510.951,0,0,2021-04-05 21:25:29.361 -0400,639365263.2291514,0,-2.29,98.19355,1,0.68
2021-04-05 21:27:45.276 -0400,0,0,0,0,0,0,0,0,0,15127.7371615,-0.063232421875,-0.1563568115234375,-0.970245361328125,15127.7120145,-1.522721787333979,-0.0727418490532921,0.1661794153526986,0.03192930668592453,-0.009752700105309486,-0.001925561111420393,0.006567314267158508,0.00721248984336853,-0.008388519287109375,XArbitraryZVertical,0.03503905450515579,-0.0834525977915957,-0.6892570373069098,0.7188412119946926,-0.07167650014162064,-0.1654156148433685,-0.9836158752441406,0,0,0,-1,-1,15035.623568125,unknown,2,2021-04-05 21:26:13.123 -0400,2021-04-05 19:23:45.401 -0400,693,1.405414,0,0,510.951,0,0,2021-04-05 21:25:29.361 -0400,639365263.2291514,0,-2.29,98.19355,1,0.68
2021-04-05 21:27:45.317 -0400,0,0,0,0,0,0,0,0,0,15127.7723475,-0.069244384765625,-0.157684326171875,-0.9783782958984375,15127.7723475,-1.522722423514811,-0.07357838780335865,0.1682575411256587,-0.01202377863228321,-0.002719066571444273,-0.01612505316734314,0.00368732213973999,0.01048232614994049,0.007807791233062744,XArbitraryZVertical,0.03550197281282207,-0.08446482810460069,-0.6892396042940929,0.7187169998955474,-0.07247388362884521,-0.1674647480249405,-0.9832106232643127,0,0,0,-1,-1,15035.623568125,unknown,2,2021-04-05 21:26:13.123 -0400,2021-04-05 19:23:45.401 -0400,693,1.405414,0,0,510.951,0,0,2021-04-05 21:25:29.361 -0400,639365263.2291514,0,-2.29,98.19355,1,0.68
2021-04-05 21:27:45.322 -0400,0,0,0,0,0,0,0,0,0,15127.8075655,-0.0749053955078125,-0.15557861328125,-0.98687744140625,15127.8025295,-1.523063545069451,-0.07337028464627697,0.1683175507191621,0.03677088022232056,-0.002539856359362602,-0.003740355372428894,0.0008727386593818665,0.01394422352313995,0.003372550010681152,XArbitraryZVertical,0.03558098609064512,-0.08441665586515909,-0.6893575363604282,0.7186056909721824,-0.0722685381770134,-0.1675239205360413,-0.9832156300544739,0,0,0,-1,-1,15035.623568125,unknown,2,2021-04-05 21:26:13.123 -0400,2021-04-05 19:23:45.401 -0400,693,1.405414,0,0,510.951,0,0,2021-04-05 21:25:29.361 -0400,639365263.2291514,0,-2.29,98.19355,1,0.68
2021-04-05 21:27:45.340 -0400,0,0,0,0,0,0,0,0,0,15127.8427515,-0.0755615234375,-0.165435791015625,-0.9748992919921875,15127.8326815,-1.522972554536121,-0.07301575831775035,0.1690174728439788,0.02278603240847588,0.00520641915500164,0.0021155527792871,-0.005099661648273468,0.006562292575836182,0.0002901554107666016,XArbitraryZVertical,0.03595999410569921,-0.08452733175818503,-0.6893074125495197,0.7186217957105148,-0.07191138714551926,-0.1682139039039612,-0.9831240177154541,0,0,0,-1,-1,15035.623568125,unknown,2,2021-04-05 21:26:13.123 -0400,2021-04-05 19:23:45.401 -0400,693,1.405414,0,0,510.951,0,0,2021-04-05 21:25:29.361 -0400,639365263.2291514,0,-2.29,98.19355,1,0.68
2021-04-05 21:27:45.375 -0400,0,0,0,0,0,0,0,0,0,15127.8779385,-0.080535888671875,-0.17138671875,-0.9903564453125,15127.8628625,-1.523246584178321,-0.07272476859122939,0.168820780129578,-0.01550612784922123,0.01677234284579754,-0.03020944818854332,-0.01052555441856384,0.0003869533538818359,0.004479169845581055,XArbitraryZVertical,0.03597763066804106,-0.08436036083381834,-0.6894037763296119,0.7185479830580017,-0.07162770628929138,-0.1680200099945068,-0.9831779003143311,0,0,0,-1,-1,15035.623568125,unknown,2,2021-04-05 21:26:13.123 -0400,2021-04-05 19:23:45.401 -0400,693,1.405414,0,0,510.951,0,0,2021-04-05 21:25:29.361 -0400,639365263.2291514,0,-2.29,98.19355,1,0.68
2021-04-05 21:27:45.411 -0400,0,0,0,0,0,0,0,0,0,15127.9131555,-0.0672149658203125,-0.1674041748046875,-0.989990234375,15127.8930445,-1.524554899465351,-0.07198432818280755,0.1682612741395318,-0.004518458154052496,0.009034262038767338,-0.04198567941784859,-0.009492039680480957,-0.0001035779714584351,-0.003965139389038086,XArbitraryZVertical,0.03597577443957738,-0.08392623740286997,-0.6898693170369392,0.7181521610450495,-0.07090645283460617,-0.1674684286117554,-0.9833242893218994,0,0,0,-1,-1,15035.623568125,unknown,2,2021-04-05 21:26:13.123 -0400,2021-04-05 19:23:45.401 -0400,693,1.405414,0,0,510.951,0,0,2021-04-05 21:25:29.361 -0400,639365263.2291514,0,-2.29,98.19355,1,0.68
2021-04-05 21:27:45.445 -0400,0,0,0,0,0,0,0,0,0,15127.9483425,-0.06683349609375,-0.1700286865234375,-0.9728851318359375,15127.9231965,-1.525661514552427,-0.07155113577353192,0.1681739465509517,-0.01205392740666866,0.01656641811132431,-0.03153768181800842,0.003266617655754089,-2.184510231018066e-05,-0.00662076473236084,XArbitraryZVertical,0.03604731561278778,-0.08376071679400202,-0.690260181349822,0.7177921785483832,-0.07048152387142181,-0.1673823446035385,-0.9833694696426392,0,0,0,-1,-1,15035.623568125,unknown,2,2021-04-05 21:26:13.123 -0400,2021-04-05 19:23:45.401 -0400,693,1.405414,0,0,510.951,0,0,2021-04-05 21:25:29.361 -0400,639365263.2291514,0,-2.29,98.19355,1,0.68
2021-04-05 21:27:45.481 -0400,0,0,0,0,0,0,0,0,0,15127.9835295,-0.04901123046875,-0.154022216796875,-0.992340087890625,15127.9533785,-1.526767848006167,-0.07096281141742392,0.16755857441197,-0.03395475447177887,0.03003449738025665,-0.05298823118209839,0.001810349524021149,-0.002734258770942688,0.01094865798950195,XArbitraryZVertical,0.03598212960215678,-0.08335841517298891,-0.6906564763078776,0.7174611030639243,-0.06991025805473328,-0.1667756140232086,-0.9835132956504822,0,0,0,-1,-1,15035.623568125,unknown,2,2021-04-05 21:26:13.123 -0400,2021-04-05 19:23:45.401 -0400,693,1.405414,0,0,510.951,0,0,2021-04-05 21:25:29.361 -0400,639365263.2291514,0,-2.29,98.19355,1,0.68
2021-04-05 21:27:45.516 -0400,0,0,0,0,0,0,0,0,0,15128.0187465,-0.05389404296875,-0.156829833984375,-0.989990234375,15128.0137115,-1.530438473677266,-0.0670682945651795,0.1647324907830822,-0.03347508609294891,0.07180056720972061,-0.05308542028069496,0.006952494382858276,0.003008216619491577,-0.01268851757049561,XArbitraryZVertical,0.03615869213130867,-0.08105750021025818,-0.6919481201826649,0.716470594846807,-0.0661107525229454,-0.1639884561300278,-0.9842444658279419,0,0,0,-1,-1,15035.623568125,unknown,2,2021-04-05 21:26:13.123 -0400,2021-04-05 19:23:45.401 -0400,693,1.405414,0,0,510.951,0,0,2021-04-05 21:25:29.361 -0400,639365263.2291514,0,-2.29,98.19355,1,0.68
2021-04-05 21:27:45.551 -0400,0,0,0,0,0,0,0,0,0,15128.0539335,-0.051971435546875,-0.1562347412109375,-0.9898834228515625,15128.0438935,-1.531370528403933,-0.06583893850393313,0.1649252779790535,0.01268084719777107,0.01376190595328808,-0.01462481170892715,0.01747439056634903,0.01069048047065735,0.005533695220947266,XArbitraryZVertical,0.03661583360428304,-0.08070048380201428,-0.6922563906073934,0.7161897862507924,-0.06489863246679306,-0.1641786247491837,-0.9842934012413025,0,0,0,-1,-1,15035.623568125,unknown,2,2021-04-05 21:26:13.123 -0400,2021-04-05 19:23:45.401 -0400,693,1.405414,0,0,510.951,0,0,2021-04-05 21:25:29.361 -0400,639365263.2291514,0,-2.29,98.19355,1,0.68
2021-04-05 21:27:45.586 -0400,0,0,0,0,0,0,0,0,0,15128.0891505,-0.0639801025390625,-0.160797119140625,-0.9812774658203125,15128.0740445,-1.531331943050451,-0.06571762737913009,0.1649281666737861,0.03618625923991203,-0.007043200079351664,0.02585244178771973,0.01143453270196915,0.01090694963932037,-0.003141164779663086,XArbitraryZVertical,0.03666042032756989,-0.08065732536279645,-0.6922403015216365,0.7162079693564269,-0.06477919965982437,-0.1641814708709717,-0.9843007922172546,0,0,0,-1,-1,15035.623568125,unknown,2,2021-04-05 21:26:13.123 -0400,2021-04-05 19:23:45.401 -0400,693,1.405414,0,0,510.951,0,0,2021-04-05 21:25:29.361 -0400,639365263.2291514,0,-2.29,98.19355,1,0.68
2021-04-05 21:27:45.621 -0400,0,0,0,0,0,0,0,0,0,15128.1243375,-0.0742950439453125,-0.16839599609375,-0.9810791015625,15128.1042265,-1.530292197507739,-0.06558620008612838,0.1663290167635879,0.04120063781738281,0.01160847395658493,0.01824711821973324,-0.001298472285270691,0.002309367060661316,0.001916408538818359,XArbitraryZVertical,0.03725232952639258,-0.08107301726569376,-0.6918418553835475,0.7165154418783883,-0.06463469564914703,-0.1655631512403488,-0.9840788841247559,0,0,0,-1,-1,15035.623568125,unknown,2,2021-04-05 21:26:13.123 -0400,2021-04-05 19:23:45.401 -0400,693,1.405414,0,0,510.951,0,0,2021-04-05 21:25:29.361 -0400,639365263.2291514,0,-2.29,98.19355,1,0.68
2021-04-05 21:27:45.656 -0400,0,0,0,0,0,0,0,0,0,15128.15952029167,-0.0717620849609375,-0.167724609375,-0.9876861572265625,15128.1344085,-1.530327209971174,-0.06433247464773789,0.166368025412497,0.0003249221481382847,0.03638920933008194,-0.01644872687757015,-0.0108945220708847,-0.002794384956359863,0.003073573112487793,XArbitraryZVertical,0.03769864831983839,-0.0806379237489856,-0.6918302409400345,0.7165523994093937,-0.06340046226978302,-0.1656016260385513,-0.9841526746749878,0,0,0,-1,-1,15035.623568125,unknown,2,2021-04-05 21:26:13.123 -0400,2021-04-05 19:23:45.401 -0400,693,1.405414,0,0,510.951,0,0,2021-04-05 21:25:29.361 -0400,639365263.2291514,0,-2.29,98.19355,1,0.68
2021-04-05 21:27:45.693 -0400,0,0,0,0,0,0,0,0,0,15128.19473729167,-0.0740966796875,-0.1719512939453125,-0.9884185791015625,15128.19473729167,-1.532259636117962,-0.06226296827659204,0.1662192137731675,0.04690962284803391,0.02614683471620083,-0.04223927855491638,-0.01450147852301598,-0.0001945346593856812,-0.006446778774261475,XArbitraryZVertical,0.03828374807718269,-0.07988225609757367,-0.6924855802828326,0.7159727727261516,-0.06136515364050865,-0.1654548645019531,-0.9843063354492188,0,0,0,-1,-1,15035.623568125,unknown,2,2021-04-05 21:26:13.123 -0400,2021-04-05 19:23:45.401 -0400,693,1.405414,0,0,510.951,0,0,2021-04-05 21:25:29.361 -0400,639365263.2291514,0,-2.29,98.19355,1,0.68
2021-04-05 21:27:45.727 -0400,0,0,0,0,0,0,0,0,0,15128.22992429167,-0.0642242431640625,-0.1719970703125,-0.9712677001953125,15128.22488829167,-1.533245016768933,-0.06214247360555598,0.1675281468908415,0.02404102683067322,-0.0005442877300083637,-0.0307694599032402,-0.0009922310709953308,-0.002367556095123291,0.008114099502563477,XArbitraryZVertical,0.03875681795860922,-0.08030899228716157,-0.692812720387753,0.7155828832991267,-0.0612330473959446,-0.1667456179857254,-0.9840967655181885,0,0,0,-1,-1,15035.623568125,unknown,2,2021-04-05 21:26:13.123 -0400,2021-04-05 19:23:45.401 -0400,693,1.405414,0,0,510.951,0,0,2021-04-05 21:25:29.361 -0400,639365263.2291514,0,-2.29,98.19355,1,0.68
2021-04-05 21:27:45.814 -0400,0,0,0,0,0,0,0,0,0,15128.26514129167,-0.0629425048828125,-0.1711273193359375,-0.9756011962890625,15128.25507029167,-1.534525716926636,-0.06175049302667651,0.1677121642919172,-0.01449214015156031,0.01984872482717037,-0.06003390625119209,-0.004874140024185181,-0.007175743579864502,0.01106756925582886,XArbitraryZVertical,0.03890739119080616,-0.08025706645522129,-0.6932598937861861,0.7151474284039802,-0.06084540113806725,-0.1669270545244217,-0.9840900301933289,0,0,0,-1,-1,15035.623568125,unknown,2,2021-04-05 21:26:13.123 -0400,2021-04-05 19:23:45.401 -0400,693,1.405414,0,0,510.951,0,0,2021-04-05 21:25:29.361 -0400,639365263.2291514,0,-2.29,98.19355,1,0.68
2021-04-05 21:27:45.819 -0400,0,0,0,0,0,0,0,0,0,15128.30032829167,-0.052978515625,-0.1631622314453125,-0.994537353515625,15128.28525229167,-1.536756572246836,-0.06134574568206975,0.1671498304158477,-0.0277291052043438,0.01376983337104321,-0.07349080592393875,0.0005316324532032013,-0.0001008063554763794,0.002533912658691406,XArbitraryZVertical,0.0387564356266378,-0.07996173549196821,-0.6940594408387022,0.71441279659007,-0.06045283377170563,-0.1663725823163986,-0.9842081069946289,0,0,0,-1,-1,15035.623568125,unknown,2,2021-04-05 21:26:13.123 -0400,2021-04-05 19:23:45.401 -0400,693,1.405414,0,0,510.951,0,0,2021-04-05 21:25:29.361 -0400,639365263.2291514,0,-2.29,98.19355,1,0.68
2021-04-05 21:27:45.833 -0400,0,0,0,0,0,0,0,0,0,15128.33551529167,-0.05047607421875,-0.16473388671875,-0.9907684326171875,15128.31540429167,-1.538736861445396,-0.06081704676768905,0.1666742394935737,-0.01187626179307699,0.005875548347830772,-0.05104465410113335,0.008103229105472565,0.003778964281082153,-0.01244634389877319,XArbitraryZVertical,0.03869033544260593,-0.07964705248204031,-0.6947648325939466,0.7137655667785047,-0.05993727967143059,-0.1659035980701447,-0.9843187928199768,0,0,0,-1,-1,15035.623568125,unknown,2,2021-04-05 21:26:13.123 -0400,2021-04-05 19:23:45.401 -0400,693,1.405414,0,0,510.951,0,0,2021-04-05 21:25:29.361 -0400,639365265.8040034,0,-2.25,98.19355,1,0.68
2021-04-05 21:27:45.868 -0400,0,0,0,0,0,0,0,0,0,15128.37073229167,-0.0517425537109375,-0.171600341796875,-0.9770660400390625,15128.34558529167,-1.539948522188309,-0.06064797934994395,0.167099500769565,-0.002781777642667294,0.001597241964191198,-0.03112862072885036,0.009290561079978943,0.001589059829711914,-0.006510019302368164,XArbitraryZVertical,0.03885326926626597,-0.07975722432137958,-0.6951861384843028,0.7133340517219992,-0.05976657941937447,-0.1663229465484619,-0.9842584133148193,0,0,0,-1,-1,15035.623568125,unknown,2,2021-04-05 21:26:13.123 -0400,2021-04-05 19:23:45.401 -0400,693,1.405414,0,0,510.951,0,0,2021-04-05 21:25:29.361 -0400,639365265.8040034,0,-2.25,98.19355,1,0.68
2021-04-05 21:27:45.904 -0400,0,0,0,0,0,0,0,0,0,15128.40591929167,-0.057861328125,-0.1734466552734375,-0.98651123046875,15128.37573729167,-1.540403443991968,-0.06067560994660094,0.1672388271589189,0.001693165395408869,-0.001021997537463903,-0.003448240226134658,0.009179025888442993,-0.004331275820732117,0.004482090473175049,XArbitraryZVertical,0.03887544547778084,-0.07982410581555287,-0.6953463775481775,0.713169088916021,-0.05979236960411072,-0.1664603352546692,-0.9842336177825928,0,0,0,-1,-1,15035.623568125,unknown,2,2021-04-05 21:26:13.123 -0400,2021-04-05 19:23:45.401 -0400,693,1.405414,0,0,510.951,0,0,2021-04-05 21:25:29.361 -0400,639365265.8040034,0,-2.25,98.19355,1,0.68
2021-04-05 21:27:45.938 -0400,0,0,0,0,0,0,0,0,0,15128.44110629167,-0.0573272705078125,-0.168365478515625,-0.984100341796875,15128.43610129167,-1.541137458507539,-0.06059484474658387,0.1675816552777996,0.03543899953365326,-0.00773234385997057,-0.01616734825074673,0.00563233345746994,-0.0008804351091384888,-0.002573907375335693,XArbitraryZVertical,0.03899704860762638,-0.07992818105679028,-0.6956002323923725,0.7129033131804386,-0.05970941856503487,-0.1667983680963516,-0.9841814041137695,0,0,0,-1,-1,15035.623568125,unknown,2,2021-04-05 21:26:13.123 -0400,2021-04-05 19:23:45.401 -0400,693,1.405414,0,0,510.951,0,0,2021-04-05 21:25:29.361 -0400,639365265.8040034,0,-2.25,98.19355,1,0.68
2021-04-05 21:27:45.974 -0400,0,0,0,0,0,0,0,0,0,15128.47632329167,-0.051361083984375,-0.173370361328125,-0.956329345703125,15128.46625229167,-1.541632240392505,-0.06027252750031638,0.1691976158533637,0.045729611068964,-0.00367020396515727,-0.02142905443906784,0.00439852848649025,0.00117039680480957,0.01933068037033081,XArbitraryZVertical,0.03966811142458213,-0.08038218708150131,-0.6957403709514014,0.712678392690373,-0.05937588214874268,-0.1683914810419083,-0.9839302897453308,0,0,0,-1,-1,15035.623568125,unknown,2,2021-04-05 21:26:13.123 -0400,2021-04-05 19:23:45.401 -0400,693,1.405414,0,0,510.951,0,0,2021-04-05 21:25:29.361 -0400,639365265.8040034,0,-2.25,98.19355,1,0.68
2021-04-05 21:27:46.009 -0400,0,0,0,0,0,0,0,0,0,15128.51151029167,-0.0449981689453125,-0.16778564453125,-0.98236083984375,15128.49643429167,-1.542382743347572,-0.06028633253043664,0.1704886929813186,0.006665064953267574,-0.01578494347631931,-0.03702930361032486,0.009037632495164871,-0.001081883907318115,0.02889293432235718,XArbitraryZVertical,0.04009531753888938,-0.08084890747304688,-0.6959837838395163,0.7123639819488008,-0.0593763180077076,-0.1696639806032181,-0.9837116599082947,0,0,0,-1,-1,15035.623568125,unknown,2,2021-04-05 21:26:13.123 -0400,2021-04-05 19:23:45.401 -0400,693,1.405414,0,0,510.951,0,0,2021-04-05 21:25:29.361 -0400,639365265.8040034,0,-2.25,98.19355,1,0.68
2021-04-05 21:27:46.044 -0400,0,0,0,0,0,0,0,0,0,15128.54672729167,-0.041168212890625,-0.1712188720703125,-0.9832000732421875,15128.52658529167,-1.543708524759682,-0.06005951278129492,0.1698591801613961,-0.03329142928123474,0.007159847766160965,-0.04356280341744423,0.01446665823459625,0.001120582222938538,0.002248883247375488,XArbitraryZVertical,0.03989549577898471,-0.08057666956370582,-0.6964632053664666,0.7119373411562249,-0.05915959179401398,-0.169043555855751,-0.983831524848938,0,0,0,-1,-1,15035.623568125,unknown,2,2021-04-05 21:26:13.123 -0400,2021-04-05 19:23:45.401 -0400,693,1.405414,0,0,510.951,0,0,2021-04-05 21:25:29.361 -0400,639365265.8040034,0,-2.25,98.19355,1,0.68
2021-04-05 21:27:46.079 -0400,0,0,0,0,0,0,0,0,0,15128.58191429167,-0.0519561767578125,-0.1846771240234375,-0.9793701171875,15128.55676729167,-1.544594825302557,-0.05914560263401093,0.1692755416732213,-0.01370139326900244,0.03257537633180618,-0.01548909023404121,0.01709810271859169,-0.002750590443611145,0.000783383846282959,XArbitraryZVertical,0.03996947401976743,-0.08006687307894723,-0.6967714236319595,0.7116890171160252,-0.05826625227928162,-0.1684682965278625,-0.9839834570884705,0,0,0,-1,-1,15035.623568125,unknown,2,2021-04-05 21:26:13.123 -0400,2021-04-05 19:23:45.401 -0400,693,1.405414,0,0,510.951,0,0,2021-04-05 21:25:29.361 -0400,639365265.8040034,0,-2.25,98.19355,1,0.68
2021-04-05 21:27:46.114 -0400,0,0,0,0,0,0,0,0,0,15128.61710029167,-0.060760498046875,-0.1919097900390625,-0.984130859375,15128.58694929167,-1.545103226219684,-0.05816112506133461,0.1686247518524047,-0.03966744616627693,0.006794748827815056,-0.01115810871124268,0.007468737661838531,-0.01567541062831879,0.002948462963104248,XArbitraryZVertical,0.04005952854318698,-0.07950114877515907,-0.6969449667601243,0.7115774570201541,-0.05730387568473816,-0.167826771736145,-0.9841495752334595,0,0,0,-1,-1,15035.623568125,unknown,2,2021-04-05 21:26:13.123 -0400,2021-04-05 19:23:45.401 -0400,693,1.405414,0,0,510.951,0,0,2021-04-05 21:25:29.361 -0400,639365265.8040034,0,-2.25,98.19355,1,0.68
2021-04-05 21:27:46.150 -0400,0,0,0,0,0,0,0,0,0,15128.65231829167,-0.063385009765625,-0.1955413818359375,-0.9888153076171875,15128.64728229167,-1.546066429269262,-0.0569675933879314,0.1659523944754503,-0.04430265724658966,-0.004076725337654352,-0.02522961795330048,-0.01014481484889984,-0.03147880733013153,-0.004931926727294922,XArbitraryZVertical,0.03948242525458012,-0.07816882276423752,-0.6973143545654831,0.711395399338048,-0.05615455657243729,-0.1651917099952698,-0.9846615195274353,0,0,0,-1,-1,15035.623568125,unknown,2,2021-04-05 21:26:13.123 -0400,2021-04-05 19:23:45.401 -0400,693,1.405414,0,0,510.951,0,0,2021-04-05 21:25:29.361 -0400,639365265.8040034,0,-2.25,98.19355,1,0.68
2021-04-05 21:27:46.185 -0400,0,0,0,0,0,0,0,0,0,15128.68750429167,-0.0645904541015625,-0.1941680908203125,-0.9981536865234375,15128.67746429167,-1.547169614511194,-0.05763161111181451,0.1646193219627722,-0.06734193861484528,-0.05047142878174782,-0.03382901474833488,0.001675806939601898,-0.03132887184619904,-0.01048779487609863,XArbitraryZVertical,0.03873152821558176,-0.07796384152681857,-0.6977444392110431,0.7110374940341212,-0.05682101100683212,-0.1638768166303635,-0.9848430156707764,0,0,0,-1,-1,15035.623568125,unknown,2,2021-04-05 21:26:13.123 -0400,2021-04-05 19:23:45.401 -0400,693,1.405414,0,0,510.951,0,0,2021-04-05 21:25:29.361 -0400,639365265.8040034,0,-2.25,98.19355,1,0.68
2021-04-05 21:27:46.220 -0400,0,0,0,0,0,0,0,0,0,15128.72269129167,-0.042877197265625,-0.1964569091796875,-0.981536865234375,15128.70761629167,-1.548458821988416,-0.05889870913851636,0.1643898993060152,-0.03183099627494812,-0.05102944374084473,-0.03627593070268631,0.006252285093069077,-0.02105715870857239,-0.01561951637268066,XArbitraryZVertical,0.03815701636187278,-0.07835926853978022,-0.6982311775165482,0.7105471342077304,-0.058071069419384,-0.1636504828929901,-0.9848077297210693,0,0,0,-1,-1,15035.623568125,unknown,2,2021-04-05 21:26:13.123 -0400,2021-04-05 19:23:45.401 -0400,693,1.405414,0,0,510.951,0,0,2021-04-05 21:25:29.361 -0400,639365265.8040034,0,-2.25,98.19355,1,0.68
2021-04-05 21:27:46.312 -0400,0,0,0,0,0,0,0,0,0,15128.75790829167,-0.034759521484375,-0.2044219970703125,-0.9845733642578125,15128.73779729167,-1.548992440732424,-0.06047966603478255,0.1647627195245696,-0.02628255262970924,-0.05330654978752136,-0.01400000043213367,0.02138577774167061,-0.03159940242767334,0.008167505264282227,XArbitraryZVertical,0.0377170626559597,-0.07906048335491568,-0.6984439653264948,0.7102837520930155,-0.05962424352765083,-0.1640182733535767,-0.9846537113189697,0,0,0,-1,-1,15035.623568125,unknown,2,2021-04-05 21:26:13.123 -0400,2021-04-05 19:23:45.401 -0400,693,1.405414,0,0,510.951,0,0,2021-04-05 21:25:29.361 -0400,639365265.8040034,0,-2.25,98.19355,1,0.68
2021-04-05 21:27:46.317 -0400,0,0,0,0,0,0,0,0,0,15128.79309529167,-0.0283355712890625,-0.20477294921875,-0.9988250732421875,15128.76794929167,-1.549994079810942,-0.06174274453823268,0.1634772938469576,-0.1079474613070488,-0.04188169166445732,-0.04029656946659088,0.02612138912081718,-0.04167188704013824,0.0002138614654541016,XArbitraryZVertical,0.03677758815765976,-0.07908088364294141,-0.6988459783107287,0.7099350919527957,-0.06088085100054741,-0.1627501100301743,-0.9847872257232666,0,0,0,-1,-1,15035.623568125,unknown,2,2021-04-05 21:26:13.123 -0400,2021-04-05 19:23:45.401 -0400,693,1.405414,0,0,510.951,0,0,2021-04-05 21:25:29.361 -0400,639365265.8040034,0,-2.25,98.19355,1,0.68
2021-04-05 21:27:46.326 -0400,0,0,0,0,0,0,0,0,0,15128.82831329167,-0.0370330810546875,-0.2039031982421875,-0.96600341796875,15128.79813129167,-1.551164897653382,-0.06231708229252042,0.1624995702007297,0.01102265156805515,-0.001088658813387156,-0.03018709272146225,0.03423469886183739,-0.04346062242984772,-0.01219034194946289,XArbitraryZVertical,0.03618188839071096,-0.0789660602229761,-0.6992889891561714,0.7095422553569423,-0.06145631894469261,-0.1617853492498398,-0.9849104881286621,0,0,0,-1,-1,15035.623568125,unknown,2,2021-04-05 21:26:13.123 -0400,2021-04-05 19:23:45.401 -0400,693,1.405414,0,0,510.951,0,0,2021-04-05 21:25:29.361 -0400,639365265.8040034,0,-2.25,98.19355,1,0.68
2021-04-05 21:27:46.360 -0400,0,0,0,0,0,0,0,0,0,15128.86349929167,-0.0539093017578125,-0.1648712158203125,-0.981231689453125,15128.85846429167,-1.555287437580785,-0.05846307894820812,0.1673634226104591,-0.02112764865159988,0.02331157028675079,-0.1160090565681458,0.01722340658307076,-0.02351079881191254,0.005598306655883789,XArbitraryZVertical,0.03909971105143507,-0.0793713778433475,-0.700589341319265,0.7080578013550768,-0.05761336535215378,-0.1665831953287125,-0.9843428134918213,0,0,0,-1,-1,15035.623568125,unknown,2,2021-04-05 21:26:13.123 -0400,2021-04-05 19:23:45.401 -0400,693,1.405414,0,0,510.951,0,0,2021-04-05 21:25:29.361 -0400,639365265.8040034,0,-2.25,98.19355,1,0.68
2021-04-05 21:27:46.396 -0400,0,0,0,0,0,0,0,0,0,15128.89868629167,-0.0714569091796875,-0.16571044921875,-0.9459686279296875,15128.88864629167,-1.558274008159544,-0.0556773577621543,0.1695550304977161,0.09639262408018112,0.0639059916138649,-0.08084292709827423,-0.009083673357963562,0.00520007312297821,0.009385883808135986,XArbitraryZVertical,0.04073682690569024,-0.07920995645390333,-0.7015477876340194,0.7070339313015391,-0.05485059320926666,-0.1687437742948532,-0.9841325879096985,0,0,0,-1,-1,15035.623568125,unknown,2,2021-04-05 21:26:13.123 -0400,2021-04-05 19:23:45.401 -0400,693,1.405414,0,0,510.951,0,0,2021-04-05 21:25:29.361 -0400,639365265.8040034,0,-2.25,98.19355,1,0.68
2021-04-05 21:27:46.431 -0400,0,0,0,0,0,0,0,0,0,15128.93390329167,-0.0749359130859375,-0.184112548828125,-0.9048004150390625,15128.91879729167,-1.56089693710309,-0.05330079163714028,0.1739512427733147,0.07135794311761856,0.03986065834760666,-0.1078559905290604,-0.02116730064153671,0.002253159880638123,0.05244910717010498,XArbitraryZVertical,0.04302681789285388,-0.0799609562625947,-0.7023345180294406,0.7060320351188727,-0.05247155576944351,-0.1730753034353256,-0.98350989818573,0,0,0,-1,-1,15035.623568125,unknown,2,2021-04-05 21:26:13.123 -0400,2021-04-05 19:23:45.401 -0400,693,1.405414,0,0,510.951,0,0,2021-04-05 21:25:29.361 -0400,639365265.8040034,0,-2.25,98.19355,1,0.68
2021-04-05 21:27:46.466 -0400,0,0,0,0,0,0,0,0,0,15128.96909029167,-0.0531005859375,-0.1805572509765625,-0.938568115234375,15128.94897929167,-1.565973528358529,-0.05145199396756771,0.1746223631705566,-0.06915097683668137,0.003533236682415009,-0.2273422181606293,-0.02309849858283997,-0.01284821331501007,0.07728475332260132,XArbitraryZVertical,0.04371198402541838,-0.07965407490969248,-0.7040699855212852,0.7042939232306304,-0.05064716935157776,-0.1737362593412399,-0.9834889769554138,0,0,0,-1,-1,15035.623568125,unknown,2,2021-04-05 21:26:13.123 -0400,2021-04-05 19:23:45.401 -0400,693,1.405414,0,0,510.951,0,0,2021-04-05 21:25:29.361 -0400,639365265.8040034,0,-2.25,98.19355,1,0.68
2021-04-05 21:27:46.501 -0400,0,0,0,0,0,0,0,0,0,15129.00430729167,-0.0455780029296875,-0.1572113037109375,-0.995025634765625,15128.97916129167,-1.574216551420153,-0.05114010269862507,0.171713894245413,-0.1314820796251297,-0.0317765511572361,-0.2901476323604584,-0.002734486013650894,-0.00968596339225769,0.04543709754943848,XArbitraryZVertical,0.04246892791989617,-0.07870059223604987,-0.7070228772649704,0.7015134641673942,-0.05036604404449463,-0.1708712875843048,-0.9840052127838135,0,0,0,-1,-1,15035.623568125,unknown,2,2021-04-05 21:26:13.123 -0400,2021-04-05 19:23:45.401 -0400,693,1.405414,0,0,510.951,0,0,2021-04-05 21:25:29.361 -0400,639365265.8040034,0,-2.25,98.19355,1,0.68
2021-04-05 21:27:46.538 -0400,0,0,0,0,0,0,0,0,0,15129.03949429167,-0.082916259765625,-0.1638641357421875,-0.97467041015625,15129.03949429167,-1.59063745541181,-0.0508904252315859,0.166517339811432,-0.03910183534026146,0.04091674461960793,-0.2295855730772018,-0.02536609396338463,0.009895622730255127,0.002423644065856934,XArbitraryZVertical,0.04009447452205806,-0.07711551013797636,-0.7128640362333135,0.695895459607108,-0.0501648485660553,-0.1657488793134689,-0.9848912358283997,0,0,0,-1,-1,15035.623568125,unknown,2,2021-04-05 21:26:13.123 -0400,2021-04-05 19:23:45.401 -0400,693,1.405414,0,0,510.951,0,0,2021-04-05 21:25:29.361 -0400,639365265.8040034,0,-2.25,98.19355,1,0.68
2021-04-05 21:27:46.572 -0400,0,0,0,0,0,0,0,0,0,15129.07468129167,-0.1267242431640625,-0.2079620361328125,-0.975250244140625,15129.06967629167,-1.598184896541655,-0.0475367521359486,0.1650741257248157,-0.1566450148820877,0.128983736038208,-0.2822922766208649,-0.05725302919745445,-0.02827098965644836,0.01913589239120483,XArbitraryZVertical,0.04050050854585469,-0.07558948581316527,-0.7154482154628814,0.6933829483346086,-0.04687288776040077,-0.1643254458904266,-0.9852918982505798,0,0,0,-1,-1,15035.623568125,unknown,2,2021-04-05 21:26:13.123 -0400,2021-04-05 19:23:45.401 -0400,693,1.405414,0,0,510.951,0,0,2021-04-05 21:25:29.361 -0400,639365265.8040034,0,-2.25,98.19355,1,0.68
2021-04-05 21:27:46.607 -0400,0,0,0,0,0,0,0,0,0,15129.10989829167,-0.1024169921875,-0.2205047607421875,-1.008880615234375,15129.09982729167,-1.609311546224835,-0.0400549946588148,0.1580463295927207,-0.3161866366863251,0.2156540304422379,-0.4239586293697357,-0.08252505213022232,-0.06383273005485535,-0.001246750354766846,XArbitraryZVertical,0.04033780674540154,-0.07071480159021198,-0.7192953177643012,0.6899177248002593,-0.0395452007651329,-0.1573891937732697,-0.9867445826530457,0,0,0,-1,-1,15035.623568125,unknown,2,2021-04-05 21:26:13.123 -0400,2021-04-05 19:23:45.401 -0400,693,1.405414,0,0,510.951,0,0,2021-04-05 21:25:29.361 -0400,639365265.8040034,0,-2.25,98.19355,1,0.68
2021-04-05 21:27:46.642 -0400,0,0,0,0,0,0,0,0,0,15129.145089875,-0.0271759033203125,-0.1826019287109375,-1.026687622070312,15129.13000929167,-1.622681030934108,-0.03280501036044225,0.1497362830502698,-0.2519870400428772,0.2030566036701202,-0.3886310458183289,-0.0515369325876236,-0.06403368711471558,-0.02743810415267944,XArbitraryZVertical,0.03963223706682811,-0.06549860723142358,-0.7239266849669528,0.6856160086279895,-0.03243212029337883,-0.1491773724555969,-0.9882784485816956,0,0,0,-1,-1,15035.623568125,unknown,2,2021-04-05 21:26:13.123 -0400,2021-04-05 19:23:45.401 -0400,693,1.405414,0,0,510.951,0,0,2021-04-05 21:25:29.361 -0400,639365265.8040034,0,-2.25,98.19355,1,0.68
2021-04-05 21:27:46.677 -0400,0,0,0,0,0,0,0,0,0,15129.180276875,0.0010528564453125,-0.19451904296875,-1.005477905273438,15129.160165875,-1.6323779397405,-0.02801592295527608,0.1467619939079363,-0.09415633231401443,0.1322553306818008,-0.2280602753162384,-0.0008990485221147537,-0.03628991544246674,-0.02555793523788452,XArbitraryZVertical,0.04003858130806101,-0.0629771779117974,-0.7272121174710067,0.6823440329421107,-0.02771111950278282,-0.1462357044219971,-0.9888615608215332,0,0,0,-1,-1,15035.623568125,unknown,2,2021-04-05 21:26:13.123 -0400,2021-04-05 19:23:45.401 -0400,693,1.405414,0,0,510.951,0,0,2021-04-05 21:25:29.361 -0400,639365265.8040034,0,-2.25,98.19355,1,0.68
2021-04-05 21:27:46.713 -0400,0,0,0,0,0,0,0,0,0,15129.215493875,0.007904052734375,-0.1951141357421875,-1.040634155273438,15129.190347875,-1.636832733224325,-0.02815381018956638,0.145446128865186,-0.1817425638437271,-0.0198182612657547,-0.1103249564766884,0.02890577912330627,-0.04958517849445343,-0.01642864942550659,XArbitraryZVertical,0.03939909824707256,-0.06263459506332196,-0.7287616532780229,0.680757717164563,-0.027852863073349,-0.1449338644742966,-0.9890492558479309,0,0,0,-1,-1,15035.623568125,unknown,2,2021-04-05 21:26:13.123 -0400,2021-04-05 19:23:45.401 -0400,693,1.405414,0,0,510.951,0,0,2021-04-05 21:25:29.361 -0400,639365265.8040034,0,-2.25,98.19355,1,0.68
2021-04-05 21:27:46.775 -0400,0,0,0,0,0,0,0,0,0,15129.250680875,0.004241943359375,-0.200653076171875,-0.9893951416015625,15129.220528875,-1.639834879839368,-0.03139051611200635,0.1414053170858302,-0.1471716463565826,-0.07709027826786041,-0.04566478729248047,0.03555824235081673,-0.05712452530860901,-0.05136233568191528,XArbitraryZVertical,0.03674750448742851,-0.06232194541818678,-0.7299295981679671,0.6796825988032942,-0.0310721006244421,-0.1409345418214798,-0.9895312190055847,0,0,0,-1,-1,15035.623568125,unknown,2,2021-04-05 21:26:13.123 -0400,2021-04-05 19:23:45.401 -0400,693,1.405414,0,0,510.951,0,0,2021-04-05 21:25:29.361 -0400,639365265.8040034,0,-2.25,98.19355,1,0.68
2021-04-05 21:27:46.820 -0400,0,0,0,0,0,0,0,0,0,15129.285897875,-0.061737060546875,-0.2264556884765625,-0.9802398681640625,15129.280862875,-1.633991482622118,-0.03628354565396693,0.145120957260574,0.1424569338560104,-0.0895383208990097,0.1614815443754196,0.001089032739400864,-0.07525177299976349,0.008261620998382568,XArbitraryZVertical,0.03641821453550579,-0.06523137018836581,-0.7279549056436277,0.6815425378359891,-0.03589427098631859,-0.144612118601799,-0.9888371825218201,0,0,0,-1,-1,15035.623568125,unknown,2,2021-04-05 21:26:13.123 -0400,2021-04-05 19:23:45.401 -0400,693,1.405414,0,0,510.951,0,0,2021-04-05 21:25:29.361 -0400,639365265.8040034,0,-2.25,98.19355,1,0.68
2021-04-05 21:27:46.826 -0400,0,0,0,0,0,0,0,0,0,15129.321084875,-0.0734405517578125,-0.219696044921875,-0.9964752197265625,15129.311013875,-1.629367782529847,-0.03836887715862874,0.1529112097158868,0.288948655128479,-0.09780446439981461,0.1292964816093445,-0.03224797174334526,-0.07932765781879425,-0.003011405467987061,XArbitraryZVertical,0.03848011304110036,-0.06868088087302475,-0.7262552930575703,0.6829022115180942,-0.03791188076138496,-0.1523160189390182,-0.9876044392585754,0,0,0,-1,-1,15035.623568125,unknown,2,2021-04-05 21:26:13.123 -0400,2021-04-05 19:23:45.401 -0400,693,1.405414,0,0,510.951,0,0,2021-04-05 21:25:29.361 -0400,639365265.8040034,0,-2.25,98.19355,1,0.68
2021-04-05 21:27:46.853 -0400,0,0,0,0,0,0,0,0,0,15129.356271875,-0.0845489501953125,-0.217926025390625,-0.945068359375,15129.341195875,-1.625920226160752,-0.03924070502161845,0.1618827833611853,0.2760157287120819,-0.01221229322254658,0.09745011478662491,-0.03821703791618347,-0.0550709068775177,-0.005060374736785889,XArbitraryZVertical,0.04136057132008653,-0.07215534500434723,-0.7248980071448947,0.6838170367960612,-0.03871771693229675,-0.1611766517162323,-0.9861658215522766,0,0,0,-1,-1,15035.623568125,unknown,2,2021-04-05 21:26:13.123 -0400,2021-04-05 19:23:45.401 -0400,693,1.405414,0,0,510.951,0,0,2021-04-05 21:25:29.361 -0400,639365265.8040034,0,-2.25,98.19355,1,0.68
2021-04-05 21:27:46.890 -0400,0,0,0,0,0,0,0,0,0,15129.391488875,-0.065582275390625,-0.22552490234375,-0.9229583740234375,15129.371377875,-1.623399618856734,-0.03882255835356624,0.1724256359910869,0.286776214838028,0.03969703987240791,0.03161147609353065,-0.0456707552075386,-0.04729954898357391,0.04387742280960083,XArbitraryZVertical,0.04522384211968715,-0.07576425673729503,-0.7237779239498773,0.6843682789067619,-0.03823726996779442,-0.1715725213289261,-0.9844291806221008,0,0,0,-1,-1,15035.623568125,unknown,2,2021-04-05 21:26:13.123 -0400,2021-04-05 19:23:45.401 -0400,693,1.405414,0,0,510.951,0,0,2021-04-05 21:25:29.361 -0400,639365265.8040034,0,-2.25,98.19355,1,0.68
2021-04-05 21:27:46.924 -0400,0,0,0,0,0,0,0,0,0,15129.426675875,-0.05072021484375,-0.2406463623046875,-0.92529296875,15129.401528875,-1.622166748268884,-0.03958679681162921,0.1806452716899647,0.1679663360118866,-0.02231558784842491,0.03809362649917603,-0.02664974331855774,-0.04586051404476166,0.05999886989593506,XArbitraryZVertical,0.04781823948860812,-0.07896066662142021,-0.723166345748623,0.6844771975652395,-0.03893246874213219,-0.1796643882989883,-0.9829572439193726,0,0,0,-1,-1,15035.623568125,unknown,2,2021-04-05 21:26:13.123 -0400,2021-04-05 19:23:45.401 -0400,693,1.405414,0,0,510.951,0,0,2021-04-05 21:25:29.361 -0400,639365265.8040034,0,-2.25,98.19355,1,0.68
2021-04-05 21:27:46.959 -0400,0,0,0,0,0,0,0,0,0,15129.461861875,-0.076873779296875,-0.2504730224609375,-0.99066162109375,15129.431710875,-1.619812678377028,-0.04229675524080588,0.1862377499832862,0.1022079885005951,-0.01895648241043091,0.0795760378241539,-0.007183551788330078,-0.05746698379516602,0.05749726295471191,XArbitraryZVertical,0.04885589834783633,-0.08184526286634559,-0.7222796084636218,0.6850011469229565,-0.04155296087265015,-0.1851630210876465,-0.9818289279937744,0,0,0,-1,-1,15035.623568125,unknown,2,2021-04-05 21:26:13.123 -0400,2021-04-05 19:23:45.401 -0400,693,1.405414,0,0,510.951,0,0,2021-04-05 21:25:29.361 -0400,639365265.8040034,0,-2.25,98.19355,1,0.68
2021-04-05 21:27:46.995 -0400,0,0,0,0,0,0,0,0,0,15129.497079875,-0.057525634765625,-0.225677490234375,-1.046295166015625,15129.492043875,-1.616478439240196,-0.04164228191840988,0.1853845161431769,-0.0436420701444149,0.05223118513822556,0.05004038289189339,-0.02699987590312958,-0.0572221577167511,-0.04670363664627075,XArbitraryZVertical,0.04893429978505604,-0.08123263452380079,-0.7211430588256154,0.6862647876583429,-0.04091693088412285,-0.1843244731426239,-0.9820134043693542,0,0,0,-1,-1,15035.623568125,unknown,2,2021-04-05 21:26:13.123 -0400,2021-04-05 19:23:45.401 -0400,693,1.405414,0,0,510.951,0,0,2021-04-05 21:25:29.361 -0400,639365265.8040034,0,-2.25,98.19355,1,0.68
2021-04-05 21:27:47.029 -0400,0,0,0,0,0,0,0,0,0,15129.532266875,-0.0606842041015625,-0.2126312255859375,-1.013900756835938,15129.522225875,-1.612318273752357,-0.04217309282602852,0.1905054248363277,0.2687804698944092,-0.01751071400940418,0.2209887951612473,-0.01209940016269684,-0.02455776929855347,-0.06243669986724854,XArbitraryZVertical,0.05068012748982938,-0.08314884749783925,-0.7195908879590736,0.6875366894969781,-0.04139785096049309,-0.189355194568634,-0.981035590171814,0,0,0,-1,-1,15035.623568125,unknown,2,2021-04-05 21:26:13.123 -0400,2021-04-05 19:23:45.401 -0400,693,1.405414,0,0,510.951,0,0,2021-04-05 21:25:29.361 -0400,639365265.8040034,0,-2.25,98.19355,1,0.68
2021-04-05 21:27:47.065 -0400,0,0,0,0,0,0,0,0,0,15129.567483875,-0.075531005859375,-0.2370758056640625,-0.9621429443359375,15129.552377875,-1.60251769482081,-0.04605916084816888,0.2051016264923382,0.5617744326591492,-0.03952397406101227,0.3461882770061493,-0.02396812662482262,-0.008964553475379944,-0.01670318841934204,XArbitraryZVertical,0.05475904256712343,-0.08944526305851898,-0.715909974615015,0.6902708834166654,-0.04507783055305481,-0.2036666572093964,-0.9780020117759705,0,0,0,-1,-1,15035.623568125,unknown,2,2021-04-05 21:26:13.123 -0400,2021-04-05 19:23:45.401 -0400,693,1.405414,0,0,510.951,0,0,2021-04-05 21:25:29.361 -0400,639365265.8040034,0,-2.25,98.19355,1,0.68
2021-04-05 21:27:47.100 -0400,0,0,0,0,0,0,0,0,0,15129.602670875,-0.0867919921875,-0.2506256103515625,-1.01507568359375,15129.582558875,-1.592350529853359,-0.04810088353055703,0.2180918056139313,0.2030119299888611,0.04291907325387001,0.2401860058307648,-0.02571891993284225,-0.02646134793758392,0.003503203392028809,XArbitraryZVertical,0.05901378705749842,-0.0944771765738049,-0.7120662704896726,0.6932193933690191,-0.04694336652755737,-0.2163670212030411,-0.9751828908920288,0,0,0,-1,-1,15035.623568125,unknown,2,2021-04-05 21:26:13.123 -0400,2021-04-05 19:23:45.401 -0400,693,1.405414,0,0,510.951,0,0,2021-04-05 21:25:29.361 -0400,639365265.8040034,0,-2.25,98.19355,1,0.68
2021-04-05 21:27:47.135 -0400,0,0,0,0,0,0,0,0,0,15129.637856875,-0.070892333984375,-0.265350341796875,-1.07012939453125,15129.612740875,-1.586540100114042,-0.0484730248787773,0.2193051448042553,0.006913882214576006,0.02441135421395302,0.164333313703537,-0.03949841111898422,-0.03307414054870605,-0.04017329216003418,XArbitraryZVertical,0.05957996135204652,-0.0948632093131473,-0.7100234203186114,0.6952107762516044,-0.04729351401329041,-0.2175514698028564,-0.9749023914337158,0,0,0,-1,-1,15035.623568125,unknown,2,2021-04-05 21:26:13.123 -0400,2021-04-05 19:23:45.401 -0400,693,1.405414,0,0,510.951,0,0,2021-04-05 21:25:29.361 -0400,639365265.8040034,0,-2.25,98.19355,1,0.68
2021-04-05 21:27:47.171 -0400,0,0,0,0,0,0,0,0,0,15129.673074875,-0.1039581298828125,-0.2316741943359375,-1.104049682617188,15129.673074875,-1.58011826548389,-0.05804020387347704,0.2179819854598853,-0.06895976513624191,-0.2208392769098282,-0.02821833267807961,-0.02866164594888687,-0.03564754128456116,-0.1256957054138184,XArbitraryZVertical,0.05603367915052699,-0.09754130455411875,-0.7081036878074093,0.6970904915195695,-0.05663492158055305,-0.2162598073482513,-0.9746918678283691,0,0,0,-1,-1,15035.623568125,unknown,2,2021-04-05 21:26:13.123 -0400,2021-04-05 19:23:45.401 -0400,693,1.405414,0,0,510.951,0,0,2021-04-05 21:25:29.361 -0400,639365265.8040034,0,-2.25,98.19355,1,0.68
2021-04-05 21:27:47.205 -0400,0,0,0,0,0,0,0,0,0,15129.708260875,-0.0543365478515625,-0.186065673828125,-1.064224243164062,15129.703225875,-1.581657088972349,-0.06253781786474011,0.2164016210836503,0.001392139587551355,-0.08534384518861771,-0.02568869665265083,-0.01485775411128998,0.01462805271148682,-0.142191469669342,XArbitraryZVertical,0.05381081391576962,-0.09859424726575712,-0.7088074607650173,0.6964017773101275,-0.06103940680623055,-0.2147165685892105,-0.9747671484947205,0,0,0,-1,-1,15035.623568125,unknown,2,2021-04-05 21:26:13.123 -0400,2021-04-05 19:23:45.401 -0400,693,1.405414,0,0,510.951,0,0,2021-04-05 21:25:29.361 -0400,639365265.8040034,0,-2.25,98.19355,1,0.68
2021-04-05 21:27:47.277 -0400,0,0,0,0,0,0,0,0,0,15129.743478875,-0.01995849609375,-0.1555328369140625,-0.9397735595703125,15129.733407875,-1.579564841602056,-0.06477288098188834,0.2203526791756868,0.1825447976589203,-0.06013946235179901,0.1238346174359322,0.02870823442935944,0.05631183087825775,-0.01398831605911255,XArbitraryZVertical,0.05450930960075373,-0.100705939330489,-0.7080303157682546,0.6968357581332777,-0.06316251307725906,-0.2185737937688828,-0.9737740755081177,0,0,0,-1,-1,15035.623568125,unknown,2,2021-04-05 21:26:13.123 -0400,2021-04-05 19:23:45.401 -0400,693,1.405414,0,0,510.951,0,0,2021-04-05 21:25:29.361 -0400,639365265.8040034,0,-2.25,98.19355,1,0.68
2021-04-05 21:27:47.317 -0400,0,0,0,0,0,0,0,0,0,15129.778664875,-0.0269622802734375,-0.149749755859375,-0.9767913818359375,15129.763589875,-1.574606226794228,-0.06898252260620627,0.2230393885987732,0.01199890021234751,-0.1314771175384521,0.164977177977562,0.05199225246906281,0.06109952926635742,0.03251105546951294,XArbitraryZVertical,0.05421740281293683,-0.102982345244032,-0.706341441838927,0.698238404373887,-0.06722045689821243,-0.2211947441101074,-0.9729102253913879,0,0,0,-1,-1,15035.623568125,unknown,2,2021-04-05 21:26:13.123 -0400,2021-04-05 19:23:45.401 -0400,693,1.405414,0,0,510.951,0,0,2021-04-05 21:25:29.361 -0400,639365265.8040034,0,-2.25,98.19355,1,0.68
2021-04-05 21:27:47.322 -0400,0,0,0,0,0,0,0,0,0,15129.813851875,-0.022216796875,-0.1192626953125,-0.974029541015625,15129.793740875,-1.570283461572954,-0.07165301981392916,0.2195687569771546,-0.117563895881176,-0.001437676139175892,0.1169422194361687,0.04344475269317627,0.06850151717662811,-0.008934736251831055,XArbitraryZVertical,0.05227475863612236,-0.1025855810195074,-0.7049943783902497,0.6998046466337855,-0.0698729082942009,-0.2178087532520294,-0.9734870791435242,0,0,0,-1,-1,15035.623568125,unknown,2,2021-04-05 21:26:13.123 -0400,2021-04-05 19:23:45.401 -0400,693,1.405414,0,0,510.951,0,0,2021-04-05 21:25:29.361 -0400,639365265.8040034,0,-2.25,98.19355,1,0.68
2021-04-05 21:27:47.347 -0400,0,0,0,0,0,0,0,0,0,15129.849069875,0.0223846435546875,-0.11444091796875,-0.9013671875,15129.823922875,-1.567219179175393,-0.06931235031836883,0.2185288512253798,0.1442658454179764,0.1231422126293182,0.09603413939476013,0.04539302736520767,0.09753100574016571,-0.000156104564666748,XArbitraryZVertical,0.05288837658202802,-0.1013218425059068,-0.7038869130507804,0.7010563001491407,-0.0676097571849823,-0.2167937010526657,-0.9738734364509583,0,0,0,-1,-1,15035.623568125,unknown,2,2021-04-05 21:26:13.123 -0400,2021-04-05 19:23:45.401 -0400,693,1.405414,0,0,510.951,0,0,2021-04-05 21:25:29.361 -0400,639365265.8040034,0,-2.25,98.19355,1,0.68
2021-04-05 21:27:47.382 -0400,0,0,0,0,0,0,0,0,0,15129.884255875,0.0348968505859375,-0.120269775390625,-0.883148193359375,15129.854073875,-1.564152094480247,-0.06570162823597639,0.2225707555174453,0.1832772493362427,0.05459963530302048,0.09207490086555481,0.08196402341127396,0.1046183109283447,0.06249278783798218,XArbitraryZVertical,0.05574187553760093,-0.10138251883831,-0.7026042248407312,0.7021123713325037,-0.06403488665819168,-0.2207376956939697,-0.9732288718223572,0,0,0,-1,-1,15035.623568125,unknown,2,2021-04-05 21:26:13.123 -0400,2021-04-05 19:23:45.401 -0400,693,1.405414,0,0,510.951,0,0,2021-04-05 21:25:29.361 -0400,639365265.8040034,0,-2.25,98.19355,1,0.68
2021-04-05 21:27:47.416 -0400,0,0,0,0,0,0,0,0,0,15129.919442875,0.0224151611328125,-0.13262939453125,-0.9196319580078125,15129.914437875,-1.558371705212866,-0.06155064820705311,0.2197399559268594,-0.04154275730252266,0.06675547361373901,0.1035503670573235,0.09164896607398987,0.1003763377666473,0.0771486759185791,XArbitraryZVertical,0.05648477504357221,-0.09877470287620976,-0.7005331509800599,0.7044901180008488,-0.0600326880812645,-0.217975839972496,-0.9741060733795166,0,0,0,-1,-1,15035.623568125,unknown,2,2021-04-05 21:26:13.123 -0400,2021-04-05 19:23:45.401 -0400,693,1.405414,0,0,510.951,0,0,2021-04-05 21:25:29.361 -0400,639365265.8040034,0,-2.25,98.19355,1,0.68
2021-04-05 21:27:47.452 -0400,0,0,0,0,0,0,0,0,0,15129.954659875,0.003692626953125,-0.14727783203125,-0.9698638916015625,15129.944589875,-1.554744296315496,-0.06006483250530159,0.2163823837930274,-0.1032323837280273,0.01742395758628845,0.1479459702968597,0.08668985217809677,0.07492727041244507,0.04378217458724976,XArbitraryZVertical,0.05599051988868507,-0.09698166689894636,-0.6993043297048709,0.7059979205465872,-0.05862888321280479,-0.2146977782249451,-0.9749192595481873,0,0,0,-1,-1,15035.623568125,unknown,2,2021-04-05 21:26:13.123 -0400,2021-04-05 19:23:45.401 -0400,693,1.405414,0,0,510.951,0,0,2021-04-05 21:25:29.361 -0400,639365265.8040034,0,-2.25,98.19355,1,0.68
2021-04-05 21:27:47.487 -0400,0,0,0,0,0,0,0,0,0,15129.989846875,-0.053009033203125,-0.1316375732421875,-1.077377319335938,15129.974770875,-1.549749325320667,-0.06169381953740452,0.2124350671207766,-0.1496504843235016,-0.03163493424654007,0.1543066650629044,0.04543724283576012,0.0630289763212204,-0.02012783288955688,XArbitraryZVertical,0.05425840643897258,-0.09605035689207624,-0.6976889335125918,0.7078562871061642,-0.06026871874928474,-0.2108408510684967,-0.9756606817245483,0,0,0,-1,-1,15035.623568125,unknown,2,2021-04-05 21:26:13.123 -0400,2021-04-05 19:23:45.401 -0400,693,1.405414,0,0,510.951,0,0,2021-04-05 21:25:29.361 -0400,639365265.8040034,0,-2.25,98.19355,1,0.68
2021-04-05 21:27:47.522 -0400,0,0,0,0,0,0,0,0,0,15130.025063875,-0.0307159423828125,-0.151947021484375,-1.045928955078125,15130.004952875,-1.547156502272957,-0.05951243947948608,0.2044963048827188,-0.2198585569858551,0.08923961967229843,0.1024885922670364,0.001368571072816849,0.06981900334358215,-0.1113609075546265,XArbitraryZVertical,0.05231113431897198,-0.09245849942239649,-0.6969153444393952,0.7092418553739103,-0.05823801085352898,-0.2030739784240723,-0.9774299263954163,0,0,0,-1,-1,15035.623568125,unknown,2,2021-04-05 21:26:13.123 -0400,2021-04-05 19:23:45.401 -0400,693,1.405414,0,0,510.951,0,0,2021-04-05 21:25:29.361 -0400,639365265.8040034,0,-2.25,98.19355,1,0.68
2021-04-05 21:27:47.557 -0400,0,0,0,0,0,0,0,0,0,15130.060250875,-0.0591888427734375,-0.1913604736328125,-0.9036407470703125,15130.035104875,-1.542493544973291,-0.05533031997424805,0.2007460279893337,0.1086120009422302,0.08007152378559113,0.2477065771818161,0.02347564324736595,0.04745341837406158,-0.06751042604446411,XArbitraryZVertical,0.05263946595695651,-0.08955356351823496,-0.695243651134192,0.7112281463539132,-0.05419152230024338,-0.1994004398584366,-0.9784184694290161,0,0,0,-1,-1,15035.623568125,unknown,2,2021-04-05 21:26:13.123 -0400,2021-04-05 19:23:45.401 -0400,693,1.405414,0,0,510.951,0,0,2021-04-05 21:25:29.361 -0400,639365265.8040034,0,-2.25,98.19355,1,0.68
2021-04-05 21:27:47.593 -0400,0,0,0,0,0,0,0,0,0,15130.095437875,-0.07574462890625,-0.2164764404296875,-0.8803863525390625,15130.065286875,-1.534415779685543,-0.05361780500996908,0.202223309624208,0.05974127352237701,0.04794111847877502,0.2328139096498489,-3.590434789657593e-05,0.01810857653617859,0.06024587154388428,XArbitraryZVertical,0.05412376132004122,-0.08923730648325995,-0.6922824217556096,0.7140393633198175,-0.05250004306435585,-0.2008478343486786,-0.9782146215438843,0,0,0,-1,-1,15035.623568125,unknown,2,2021-04-05 21:26:13.123 -0400,2021-04-05 19:23:45.401 -0400,693,1.405414,0,0,510.951,0,0,2021-04-05 21:25:29.361 -0400,639365265.8040034,0,-2.25,98.19355,1,0.68
2021-04-05 21:27:47.627 -0400,0,0,0,0,0,0,0,0,0,15130.130654875,-0.0469818115234375,-0.2177276611328125,-0.913818359375,15130.125619875,-1.532088646140199,-0.05061531544074715,0.1877301561761311,-0.29956915974617,0.01694237627089024,-0.103938028216362,-0.01305454224348068,-0.03289878368377686,0.08334505558013916,XArbitraryZVertical,0.0500573270628375,-0.08311534926297751,-0.6917262537175942,0.715612278797372,-0.04970479384064674,-0.1866294145584106,-0.9811722040176392,0,0,0,-1,-1,15035.623568125,unknown,2,2021-04-05 21:26:13.123 -0400,2021-04-05 19:23:45.401 -0400,693,1.405414,0,0,510.951,0,0,2021-04-05 21:25:29.361 -0400,639365265.8040034,0,-2.25,98.19355,1,0.68
2021-04-05 21:27:47.663 -0400,0,0,0,0,0,0,0,0,0,15130.165840375,-0.034423828125,-0.2136993408203125,-0.926055908203125,15130.155800375,-1.536249866961464,-0.05085789230909141,0.1822441138466707,-0.1151727735996246,-0.0584442988038063,-0.1503080576658249,0.001043960452079773,-0.02660298347473145,0.06996697187423706,XArbitraryZVertical,0.04783198297073311,-0.08141350618509575,-0.6933457300570979,0.7143919195565671,-0.0499940998852253,-0.1812369823455811,-0.9821678996086121,0,0,0,-1,-1,15035.623568125,unknown,2,2021-04-05 21:26:13.123 -0400,2021-04-05 19:23:45.401 -0400,693,1.405414,0,0,510.951,0,0,2021-04-05 21:25:29.361 -0400,639365265.8040034,0,-2.25,98.19355,1,0.68
2021-04-05 21:27:47.698 -0400,0,0,0,0,0,0,0,0,0,15130.201057375,-0.0070648193359375,-0.2112274169921875,-0.9754486083984375,15130.185951375,-1.542232445966666,-0.05323382971013236,0.1806861845649977,-0.1583184599876404,-0.07350088655948639,-0.2345861345529556,0.02625001221895218,-0.03422358632087708,0.04414045810699463,XArbitraryZVertical,0.04620455743114148,-0.08186326717689692,-0.6955699896534403,0.7122821798787885,-0.0523424856364727,-0.1797046363353729,-0.9823271036148071,0,0,0,-1,-1,15035.623568125,unknown,2,2021-04-05 21:26:13.123 -0400,2021-04-05 19:23:45.401 -0400,693,1.405414,0,0,510.951,0,0,2021-04-05 21:25:29.361 -0400,639365265.8040034,0,-2.25,98.19355,1,0.68
2021-04-05 21:27:47.734 -0400,0,0,0,0,0,0,0,0,0,15130.236244375,-0.007568359375,-0.201995849609375,-0.9988555908203125,15130.216133375,-1.549184450751587,-0.05324788572585259,0.177200048405822,-0.1046109572052956,-0.01361747831106186,-0.2036757320165634,0.04909347742795944,-0.03399196267127991,0.00444561243057251,XArbitraryZVertical,0.0446715570775377,-0.08081749473140255,-0.6981178635956912,0.7100030887859358,-0.05238931626081467,-0.1762741655111313,-0.98294597864151,0,0,0,-1,-1,15035.623568125,unknown,2,2021-04-05 21:26:13.123 -0400,2021-04-05 19:23:45.401 -0400,693,1.405414,0,0,510.951,0,0,2021-04-05 21:25:29.361 -0400,639365265.8040034,0,-2.25,98.19355,1,0.68
2021-04-05 21:27:47.819 -0400,0,0,0,0,0,0,0,0,0,15130.271431375,-0.0064544677734375,-0.222808837890625,-0.985595703125,15130.246284375,-1.554895418378547,-0.0522593933270093,0.1768456912274292,-0.05342333018779755,0.01524866744875908,-0.1464961022138596,0.04385261982679367,-0.02607050538063049,-0.0157960057258606,XArbitraryZVertical,0.04466061700398797,-0.08047130837535099,-0.7001280617690957,0.7080611852313968,-0.0514209158718586,-0.1759253442287445,-0.9830595850944519,0,0,0,-1,-1,15035.623568125,unknown,2,2021-04-05 21:26:13.123 -0400,2021-04-05 19:23:45.401 -0400,693,1.405414,0,0,510.951,0,0,2021-04-05 21:25:29.361 -0400,639365265.8040034,0,-2.25,98.19355,1,0.68
2021-04-05 21:27:47.825 -0400,0,0,0,0,0,0,0,0,0,15130.306648375,-0.019439697265625,-0.230560302734375,-0.969024658203125,15130.276466375,-1.559269830593656,-0.05102005569156656,0.1778026013280831,0.02501028217375278,-0.02471892721951008,-0.12282794713974,0.04497548565268517,-0.04372905194759369,-0.006776809692382812,XArbitraryZVertical,0.04525887393324458,-0.0804651423412691,-0.7016262331329947,0.7065391946096508,-0.05019392818212509,-0.1768672466278076,-0.9829539656639099,0,0,0,-1,-1,15035.623568125,unknown,2,2021-04-05 21:26:13.123 -0400,2021-04-05 19:23:45.401 -0400,693,1.405414,0,0,510.951,0,0,2021-04-05 21:25:29.361 -0400,639365265.8040034,0,-2.25,98.19355,1,0.68
2021-04-05 21:27:47.839 -0400,0,0,0,0,0,0,0,0,0,15130.341835375,-0.0411529541015625,-0.2429656982421875,-0.9842529296875,15130.336799375,-1.565252475937018,-0.04840899455937229,0.1828000931101723,-0.04949593171477318,-0.01646400801837444,-0.1289511919021606,0.02106411755084991,-0.06289096176624298,0.01538968086242676,XArbitraryZVertical,0.04770458493118654,-0.08143087376365589,-0.7035613300879714,0.7043399949459527,-0.04758384078741074,-0.1817837208509445,-0.9821865558624268,0,0,0,-1,-1,15035.623568125,unknown,2,2021-04-05 21:26:13.123 -0400,2021-04-05 19:23:45.401 -0400,693,1.405414,0,0,510.951,0,0,2021-04-05 21:25:29.361 -0400,639365265.8040034,0,-2.25,98.19355,1,0.68
2021-04-05 21:27:47.875 -0400,0,0,0,0,0,0,0,0,0,15130.377022375,-0.0544891357421875,-0.250732421875,-1.079910278320312,15130.366981375,-1.571162795836142,-0.04570278496025804,0.1799833004076404,-0.1684118062257767,0.03487540408968925,-0.2115910053253174,-0.008594147861003876,-0.06505118310451508,-0.04702681303024292,XArbitraryZVertical,0.04742507920854834,-0.07963154649165023,-0.7056423573704419,0.7024802103587432,-0.04494888335466385,-0.1790131479501724,-0.9828193783760071,0,0,0,-1,-1,15035.623568125,unknown,2,2021-04-05 21:26:13.123 -0400,2021-04-05 19:23:45.401 -0400,693,1.405414,0,0,510.951,0,0,2021-04-05 21:25:29.361 -0400,639365265.8040034,0,-2.25,98.19355,1,0.68
2021-04-05 21:27:47.910 -0400,0,0,0,0,0,0,0,0,0,15130.412239375,-0.048431396484375,-0.2510986328125,-1.086929321289062,15130.397163375,-1.577836667032057,-0.04197132253461879,0.1801113826165935,0.07059162110090256,0.07316582649946213,-0.1967639476060867,-0.01700824871659279,-0.06689353287220001,-0.1031937599182129,XArbitraryZVertical,0.04852493361434054,-0.0785281292271611,-0.7078901960398101,0.7002644285256429,-0.04128026217222214,-0.1791391521692276,-0.9829573035240173,0,0,0,-1,-1,15035.623568125,unknown,2,2021-04-05 21:26:13.123 -0400,2021-04-05 19:23:45.401 -0400,693,1.405414,0,0,510.951,0,0,2021-04-05 21:25:29.361 -0400,639365265.8040034,0,-2.25,98.19355,1,0.68
2021-04-05 21:27:47.945 -0400,0,0,0,0,0,0,0,0,0,15130.447426375,-0.0391387939453125,-0.251922607421875,-1.073394775390625,15130.427315375,-1.583871471917587,-0.03988894973836548,0.1865549733600692,0.1777785569429398,-0.04856132715940475,-0.2015056163072586,-0.005338646471500397,-0.06443369388580322,-0.106831967830658,XArbitraryZVertical,0.05128442181008493,-0.0802260639333688,-0.7097843787241027,0.6979540159654023,-0.03918644413352013,-0.1854747533798218,-0.9818673729896545,0,0,0,-1,-1,15035.623568125,unknown,2,2021-04-05 21:26:13.123 -0400,2021-04-05 19:23:45.401 -0400,693,1.405414,0,0,510.951,0,0,2021-04-05 21:25:29.361 -0400,639365265.8040034,0,-2.25,98.19355,1,0.68
2021-04-05 21:27:47.980 -0400,0,0,0,0,0,0,0,0,0,15130.482643375,-0.0544281005859375,-0.2308197021484375,-1.03118896484375,15130.457496375,-1.588639924266179,-0.0415206898727286,0.1954176516083124,0.3584738671779633,-0.1123275086283684,-0.1492784768342972,0.001579977571964264,-0.05774635076522827,-0.0932735800743103,XArbitraryZVertical,0.05360932410954496,-0.08405617325243843,-0.7112507030580789,0.6958325886660666,-0.04071871191263199,-0.1941762566566467,-0.9801211953163147,0,0,0,-1,-1,15035.623568125,unknown,2,2021-04-05 21:26:13.123 -0400,2021-04-05 19:23:45.401 -0400,693,1.405414,0,0,510.951,0,0,2021-04-05 21:25:29.361 -0400,639365265.8040034,0,-2.25,98.19355,1,0.68
2021-04-05 21:27:48.016 -0400,0,0,0,0,0,0,0,0,0,15130.517830375,-0.089813232421875,-0.1726531982421875,-1.057357788085938,15130.487648375,-1.59311164282658,-0.04436937423837891,0.2054354451938628,0.2377945780754089,-0.1297642290592194,-0.1783497780561447,-0.005955249071121216,-0.03219732642173767,-0.05815452337265015,XArbitraryZVertical,0.05589752384593912,-0.08871907772716948,-0.7125991843352066,0.6936906843951439,-0.04342213645577431,-0.2039934694766998,-0.9780088067054749,0,0,0,-1,-1,15035.623568125,unknown,2,2021-04-05 21:26:13.123 -0400,2021-04-05 19:23:45.401 -0400,693,1.405414,0,0,510.951,0,0,2021-04-05 21:25:29.361 -0400,639365265.8040034,0,-2.25,98.19355,1,0.68
2021-04-05 21:27:48.051 -0400,0,0,0,0,0,0,0,0,0,15130.553016375,-0.0347747802734375,-0.1063385009765625,-1.085403442382812,15130.548012375,-1.614808596836956,-0.04789272842278656,0.2069379404141586,-0.07871423661708832,-0.1083306968212128,-0.4700636267662048,-0.01781367883086205,0.05446317791938782,-0.108852744102478,XArbitraryZVertical,0.05418097483659917,-0.09106693553166562,-0.7201347753676872,0.6856946022695576,-0.04685300216078758,-0.2054641395807266,-0.9775424599647522,0,0,0,-1,-1,15035.623568125,unknown,2,2021-04-05 21:26:13.123 -0400,2021-04-05 19:23:45.401 -0400,693,1.405414,0,0,510.951,0,0,2021-04-05 21:25:29.361 -0400,639365265.8040034,0,-2.25,98.19355,1,0.68
2021-04-05 21:27:48.085 -0400,0,0,0,0,0,0,0,0,0,15130.588234375,-0.0386505126953125,-0.05224609375,-0.97662353515625,15130.578163375,-1.624417815093843,-0.05096361427175543,0.2117039480026447,0.3856940269470215,-0.2044947296380997,-0.1677012294530869,0.01946984604001045,0.1444980651140213,-0.06473273038864136,XArbitraryZVertical,0.0542663396200603,-0.0940888360749161,-0.7233635166385611,0.6818706409636559,-0.04980424791574478,-0.2101261168718338,-0.9764049053192139,0,0,0,-1,-1,15035.623568125,unknown,2,2021-04-05 21:26:13.123 -0400,2021-04-05 19:23:45.401 -0400,693,1.405414,0,0,510.951,0,0,2021-04-05 21:25:29.361 -0400,639365265.8040034,0,-2.25,98.19355,1,0.68
2021-04-05 21:27:48.121 -0400,0,0,0,0,0,0,0,0,0,15130.623421375,-0.0838470458984375,-0.07855224609375,-0.9428558349609375,15130.608345375,-1.628010771139063,-0.05603124134548139,0.2231986864128668,0.2969610989093781,-0.1379309743642807,-0.1391818821430206,0.007875155657529831,0.1665863245725632,0.008835554122924805,XArbitraryZVertical,0.0561950378099912,-0.1000505774669224,-0.7243787016531669,0.6797849011128556,-0.05461276695132256,-0.2213500887155533,-0.9736639857292175,0,0,0,-1,-1,15035.623568125,unknown,2,2021-04-05 21:26:13.123 -0400,2021-04-05 19:23:45.401 -0400,693,1.405414,0,0,510.951,0,0,2021-04-05 21:25:29.361 -0400,639365265.8040034,0,-2.25,98.19355,1,0.68
2021-04-05 21:27:48.156 -0400,0,0,0,0,0,0,0,0,0,15130.658607375,-0.0966033935546875,-0.121856689453125,-0.9396514892578125,15130.638496375,-1.631546181928366,-0.05487699669156211,0.2268167838464998,0.1264557093381882,0.1742877662181854,-0.1222701296210289,-0.03526993840932846,0.1407400369644165,0.03459638357162476,XArbitraryZVertical,0.05767233771711942,-0.1010629658773487,-0.7254327274603589,0.6783860363137042,-0.05344460532069206,-0.2248769849538803,-0.9729203581809998,0,0,0,-1,-1,15035.623568125,unknown,2,2021-04-05 21:26:13.123 -0400,2021-04-05 19:23:45.401 -0400,693,1.405414,0,0,510.951,0,0,2021-04-05 21:25:29.361 -0400,639365265.8040034,0,-2.25,98.19355,1,0.68
2021-04-05 21:27:48.191 -0400,0,0,0,0,0,0,0,0,0,15130.693825375,-0.094879150390625,-0.1500091552734375,-0.92095947265625,15130.668678375,-1.63525774296709,-0.0457959283274124,0.225047805826607,0.06650467216968536,0.2934571206569672,-0.125595360994339,-0.05197782814502716,0.1012962758541107,0.03410995006561279,XArbitraryZVertical,0.06018104547303912,-0.09745525471044138,-0.726480867608729,0.6775738613683453,-0.04462550953030586,-0.2231529653072357,-0.9737614393234253,0,0,0,-1,-1,15035.623568125,unknown,2,2021-04-05 21:26:13.123 -0400,2021-04-05 19:23:45.401 -0400,693,1.405414,0,0,510.951,0,0,2021-04-05 21:25:29.361 -0400,639365265.8040034,0,-2.25,98.19355,1,0.68
2021-04-05 21:27:48.226 -0400,0,0,0,0,0,0,0,0,0,15130.729011375,-0.08343505859375,-0.1910858154296875,-0.8992919921875,15130.698860375,-1.639582769460178,-0.0370563744327015,0.2205650093517911,-0.06619901210069656,0.2243342250585556,-0.1494261026382446,-0.05967476218938828,0.07270859181880951,0.05304598808288574,XArbitraryZVertical,0.06162742275844701,-0.09300539917358448,-0.7278293829555545,0.6766213082303858,-0.03615036979317665,-0.218780979514122,-0.9751040935516357,0,0,0,-1,-1,15035.623568125,unknown,2,2021-04-05 21:26:13.123 -0400,2021-04-05 19:23:45.401 -0400,693,1.405414,0,0,510.951,0,0,2021-04-05 21:25:29.361 -0400,639365265.8040034,0,-2.25,98.19355,1,0.68
2021-04-05 21:27:48.312 -0400,0,0,0,0,0,0,0,0,0,15130.764229375,-0.0710296630859375,-0.200347900390625,-0.925689697265625,15130.759193375,-1.644570612529771,-0.02917249191985456,0.2055935060277668,-0.2662578225135803,0.1178364008665085,-0.1014052405953407,-0.05028803646564484,0.002411752939224243,0.08452630043029785,XArbitraryZVertical,0.0591970156395651,-0.08505279959680678,-0.7297761772314295,0.6757873504578399,-0.02855406887829304,-0.2041482031345367,-0.9785234928131104,0,0,0,-1,-1,15035.623568125,unknown,2,2021-04-05 21:26:13.123 -0400,2021-04-05 19:23:45.401 -0400,693,1.405414,0,0,510.951,0,0,2021-04-05 21:25:29.361 -0400,639365265.8040034,0,-2.25,98.19355,1,0.68
2021-04-05 21:27:48.317 -0400,0,0,0,0,0,0,0,0,0,15130.799415375,-0.0213775634765625,-0.1988067626953125,-0.952392578125,15130.789345375,-1.647028827534583,-0.02802497137060909,0.1953455294819369,-0.2362674325704575,0.04575761407613754,-0.03133351728320122,-0.02184324711561203,-0.00557100772857666,0.03683936595916748,XArbitraryZVertical,0.05604166213778284,-0.08100373579207829,-0.7308997411717015,0.6753394023797495,-0.02748835645616055,-0.1941055059432983,-0.9805954694747925,0,0,0,-1,-1,15035.623568125,unknown,2,2021-04-05 21:26:13.123 -0400,2021-04-05 19:23:45.401 -0400,693,1.405414,0,0,510.951,0,0,2021-04-05 21:25:29.361 -0400,639365265.8040034,0,-2.25,98.19355,1,0.68
2021-04-05 21:27:48.332 -0400,0,0,0,0,0,0,0,0,0,15130.834602375,-0.0186767578125,-0.2150421142578125,-0.9485015869140625,15130.819526375,-1.64522699940015,-0.03086015351855211,0.1920364846921809,0.006314759608358145,-0.07159609347581863,0.1175422444939613,0.01538028568029404,-0.01348736882209778,0.02619415521621704,XArbitraryZVertical,0.05395731863703572,-0.08070629253758864,-0.7304697877175973,0.6760095168768012,-0.03028806112706661,-0.1908583343029022,-0.981150209903717,0,0,0,-1,-1,15035.623568125,unknown,2,2021-04-05 21:26:13.123 -0400,2021-04-05 19:23:45.401 -0400,693,1.405414,0,0,510.951,0,0,2021-04-05 21:25:29.361 -0400,639365265.8040034,0,-2.25,98.19355,1,0.68
2021-04-05 21:27:48.367 -0400,0,0,0,0,0,0,0,0,0,15130.869819375,-0.0363006591796875,-0.1984710693359375,-0.96453857421875,15130.849708375,-1.641719436787373,-0.03581328562568443,0.1934401727826059,-0.006465760990977287,-0.0785316601395607,0.07128695398569107,0.01382134109735489,-0.0264681875705719,0.03182113170623779,XArbitraryZVertical,0.05276945458997212,-0.08279891809629276,-0.7293739525806652,0.6770326435643623,-0.03513780981302261,-0.1922360360622406,-0.9807194471359253,0,0,0,-1,-1,15035.623568125,unknown,2,2021-04-05 21:26:13.123 -0400,2021-04-05 19:23:45.401 -0400,693,1.405414,0,0,510.951,0,0,2021-04-05 21:25:29.361 -0400,639365265.8040034,0,-2.25,98.19355,1,0.68
2021-04-05 21:27:48.402 -0400,0,0,0,0,0,0,0,0,0,15130.905006375,-0.025726318359375,-0.1500244140625,-1.005203247070312,15130.879860375,-1.641413775061697,-0.03684944672301362,0.1909175165057959,-0.1837151199579239,0.03130881860852242,-0.03086018934845924,-0.000128868967294693,-0.008711233735084534,0.01662546396255493,XArbitraryZVertical,0.05154690870894631,-0.08222476418563789,-0.7293704743969133,0.6772005506878153,-0.03617172315716743,-0.1897598206996918,-0.9811640381813049,0,0,0,-1,-1,15130.882454375,unknown,2,2021-04-05 21:27:48.382 -0400,2021-04-05 19:23:45.401 -0400,693,1.405414,0,0,510.951,0,0,2021-04-05 21:25:29.361 -0400,639365268.3815215,0,-2.26,98.19386,1,0.68
2021-04-05 21:27:48.438 -0400,0,0,0,0,0,0,0,0,0,15130.940224375,-0.0452880859375,-0.137603759765625,-0.981781005859375,15130.910042375,-1.642121553822528,-0.03535209419739862,0.186419349073487,-0.1648909449577332,0.02230077981948853,0.03066946566104889,0.009738519787788391,0.0271230936050415,-0.02402806282043457,XArbitraryZVertical,0.05053572255264325,-0.08010024502851974,-0.729699367423203,0.6771772294791913,-0.03473235294222832,-0.185341477394104,-0.9820601940155029,0,0,0,-1,-1,15130.882454375,unknown,2,2021-04-05 21:27:48.382 -0400,2021-04-05 19:23:45.401 -0400,693,1.405414,0,0,510.951,0,0,2021-04-05 21:25:29.361 -0400,639365268.3815215,0,-2.26,98.19386,1,0.68
2021-04-05 21:27:48.472 -0400,0,0,0,0,0,0,0,0,0,15130.975410375,-0.097076416015625,-0.2048187255859375,-0.9148406982421875,15130.970375375,-1.628755171601628,-0.0352301000166337,0.1863451704551448,0.1068708077073097,0.08687847852706909,0.394275963306427,-0.03946833312511444,0.0116845965385437,0.03369861841201782,XArbitraryZVertical,0.0510887611066391,-0.07969231113970369,-0.7251563450710472,0.6820464212344703,-0.03461303189396858,-0.1852685809135437,-0.9820781350135803,0,0,0,-1,-1,15130.882454375,unknown,2,2021-04-05 21:27:48.382 -0400,2021-04-05 19:23:45.401 -0400,693,1.405414,0,0,510.951,0,0,2021-04-05 21:25:29.361 -0400,639365268.3815215,0,-2.26,98.19386,1,0.68
2021-04-05 21:27:48.508 -0400,0,0,0,0,0,0,0,0,0,15131.010597375,-0.1195068359375,-0.24908447265625,-0.8828887939453125,15131.000557375,-1.616705168641894,-0.03282138207548334,0.1882916721169317,0.09206189215183258,0.2073514312505722,0.3533020913600922,-0.08777482807636261,-0.0452408492565155,0.08938610553741455,XArbitraryZVertical,0.0531065829064357,-0.07925591667673598,-0.7209164187773085,0.6864238647065104,-0.03223548829555511,-0.1871810406446457,-0.9817963838577271,0,0,0,-1,-1,15130.882454375,unknown,2,2021-04-05 21:27:48.382 -0400,2021-04-05 19:23:45.401 -0400,693,1.405414,0,0,510.951,0,0,2021-04-05 21:25:29.361 -0400,639365268.3815215,0,-2.26,98.19386,1,0.68
2021-04-05 21:27:48.543 -0400,0,0,0,0,0,0,0,0,0,15131.045814375,-0.0529632568359375,-0.2716522216796875,-0.926971435546875,15131.030708375,-1.608347833399003,-0.02831246338325176,0.1880914204046603,-0.02957801520824432,0.1816508769989014,0.1715727597475052,-0.08493773639202118,-0.0648161917924881,0.1028646230697632,XArbitraryZVertical,0.05498672147932144,-0.07740712125171006,-0.7179252951827768,0.68961429327678,-0.02780939824879169,-0.1869843155145645,-0.9819691777229309,0,0,0,-1,-1,15130.882454375,unknown,2,2021-04-05 21:27:48.382 -0400,2021-04-05 19:23:45.401 -0400,693,1.405414,0,0,510.951,0,0,2021-04-05 21:25:29.361 -0400,639365268.3815215,0,-2.26,98.19386,1,0.68
2021-04-05 21:27:48.578 -0400,0,0,0,0,0,0,0,0,0,15131.081001375,-0.008148193359375,-0.2621917724609375,-1.026153564453125,15131.060890375,-1.605274993325005,-0.02810653671445129,0.1845335083925409,-0.1565417945384979,-0.02210536226630211,0.03978633508086205,-0.01262692362070084,-0.08761492371559143,0.04383671283721924,XArbitraryZVertical,0.05394716395442251,-0.07597931433845911,-0.7169609386050239,0.690857271348093,-0.02762570418417454,-0.1834879815578461,-0.9826337099075317,0,0,0,-1,-1,15130.882454375,unknown,2,2021-04-05 21:27:48.382 -0400,2021-04-05 19:23:45.401 -0400,693,1.405414,0,0,510.951,0,0,2021-04-05 21:25:29.361 -0400,639365268.3815215,0,-2.26,98.19386,1,0.68
2021-04-05 21:27:48.613 -0400,0,0,0,0,0,0,0,0,0,15131.116188375,-0.0145111083984375,-0.23980712890625,-1.119491577148438,15131.091072375,-1.603918612695783,-0.03206398940667238,0.1824494993220382,-0.1118521839380264,-0.0243695005774498,0.0328967347741127,0.02337826043367386,-0.08075281977653503,-0.04325681924819946,XArbitraryZVertical,0.05185836713911117,-0.07656594107469723,-0.7166547250099417,0.6912700442085773,-0.03152639418840408,-0.1814389526844025,-0.9828967452049255,0,0,0,-1,-1,15130.882454375,unknown,2,2021-04-05 21:27:48.382 -0400,2021-04-05 19:23:45.401 -0400,693,1.405414,0,0,510.951,0,0,2021-04-05 21:25:29.361 -0400,639365268.3815215,0,-2.26,98.19386,1,0.68
2021-04-05 21:27:48.649 -0400,0,0,0,0,0,0,0,0,0,15131.151419625,-0.0452728271484375,-0.2236480712890625,-1.162124633789062,15131.121223375,-1.601972160900202,-0.03409536768688014,0.1817124734280155,-0.1157769486308098,0.08980198204517365,0.07126925885677338,0.02559300512075424,-0.06380796432495117,-0.1189799308776855,XArbitraryZVertical,0.05094982113266702,-0.07695514478498416,-0.7160537009054301,0.6919168924862166,-0.03352751210331917,-0.1807141155004501,-0.982964038848877,0,0,0,-1,-1,15130.882454375,unknown,2,2021-04-05 21:27:48.382 -0400,2021-04-05 19:23:45.401 -0400,693,1.405414,0,0,510.951,0,0,2021-04-05 21:25:29.361 -0400,639365268.3815215,0,-2.26,98.19386,1,0.68
2021-04-05 21:27:48.683 -0400,0,0,0,0,0,0,0,0,0,15131.186606625,-0.0439605712890625,-0.277374267578125,-1.096023559570312,15131.181571625,-1.589571054518482,-0.02703842433425879,0.1941167667424829,0.7350684404373169,0.03123736381530762,0.3777630925178528,-0.01287076435983181,-0.05066080391407013,-0.1293238997459412,XArbitraryZVertical,0.05826733798467369,-0.07858134775016305,-0.7112070241792413,0.6961426023097246,-0.02652736753225327,-0.1928999722003937,-0.9808597564697266,0,0,0,-1,-1,15130.882454375,unknown,2,2021-04-05 21:27:48.382 -0400,2021-04-05 19:23:45.401 -0400,693,1.405414,0,0,510.951,0,0,2021-04-05 21:25:29.361 -0400,639365268.3815215,0,-2.26,98.19386,1,0.68
