2021-04-05 21:54:35.361 -0400,0,0,0,0,0,0,0,0,0,16342.383818375,-0.0924072265625,-0.274200439453125,-0.9511871337890625,16342.353666375,-0.02916453697716142,-0.107378694223982,0.2870942609329658,-0.05647531524300575,-0.06680339574813843,0.05398824065923691,0.01318636536598206,0.0107819139957428,0.01438373327255249,XArbitraryZVertical,0.1420588621792178,-0.05518894549535521,-0.02208698207739913,0.9880717625061523,-0.1027859747409821,-0.2831666171550751,-0.953546941280365,0,0,0,-1,-1,16336.74327125,unknown,2,2021-04-05 21:54:29.709 -0400,2021-04-05 19:23:45.401 -0400,796,1.436661,0,0,588.679,0,0,2021-04-05 21:54:32.276 -0400,639366874.8519021,0,-2.39,98.19502,1,0.63
loggingTime(txt),locationTimestamp_since1970(s),locationLatitude(WGS84),locationLongitude(WGS84),locationAltitude(m),locationSpeed(m/s),locationCourse(°),locationVerticalAccuracy(m),locationHorizontalAccuracy(m),locationFloor(Z),accelerometerTimestamp_sinceReboot(s),accelerometerAccelerationX(G),accelerometerAccelerationY(G),accelerometerAccelerationZ(G),motionTimestamp_sinceReboot(s),motionYaw(rad),motionRoll(rad),motionPitch(rad),motionRotationRateX(rad/s),motionRotationRateY(rad/s),motionRotationRateZ(rad/s),motionUserAccelerationX(G),motionUserAccelerationY(G),motionUserAccelerationZ(G),motionAttitudeReferenceFrame(txt),motionQuaternionX(R),motionQuaternionY(R),motionQuaternionZ(R),motionQuaternionW(R),motionGravityX(G),motionGravityY(G),motionGravityZ(G),motionMagneticFieldX(µT),motionMagneticFieldY(µT),motionMagneticFieldZ(µT),motionHeading(°),motionMagneticFieldCalibrationAccuracy(Z),activityTimestamp_sinceReboot(s),activity(txt),activityActivityConfidence(Z),activityActivityStartDate(txt),pedometerStartDate(txt),pedometerNumberofSteps(N),pedometerAverageActivePace(s/m),pedometerCurrentPace(s/m),pedometerCurrentCadence(steps/s),pedometerDistance(m),pedometerFloorAscended(N),pedometerFloorDescended(N),pedometerEndDate(txt),altimeterTimestamp_sinceReboot(s),altimeterReset(bool),altimeterRelativeAltitude(m),altimeterPressure(kPa),batteryState(N),batteryLevel(R)
2021-04-05 21:54:35.392 -0400,0,0,0,0,0,0,0,0,0,16342.41901775,-0.1027984619140625,-0.2795562744140625,-0.9646453857421875,16342.383818375,-0.02777734490401989,-0.1109861393998951,0.2849155911730319,-0.05084145069122314,-0.1523660272359848,0.04314080625772476,0.01573233306407928,0.003137528896331787,0.008086860179901123,XArbitraryZVertical,0.1409817046852489,-0.05686620419364478,-0.02160027965734515,0.9881416711982921,-0.1062932461500168,-0.2810764610767365,-0.9537807703018188,0,0,0,-1,-1,16336.74327125,unknown,2,2021-04-05 21:54:29.709 -0400,2021-04-05 19:23:45.401 -0400,796,1.436661,0,0,588.679,0,0,2021-04-05 21:54:32.276 -0400,639366874.8519021,0,-2.39,98.19502,1,0.63
2021-04-05 21:54:35.432 -0400,0,0,0,0,0,0,0,0,0,16342.45422375,-0.1079864501953125,-0.2749786376953125,-0.96844482421875,16342.44418275,-0.02556955711840229,-0.111528441089947,0.2815498074980895,-0.06498701125383377,0.08717016875743866,0.01766833290457726,-0.002459846436977386,-0.003679960966110229,-0.01902079582214355,XArbitraryZVertical,0.1393753504653602,-0.0569704568862443,-0.02045789197508684,0.9883877428007131,-0.1069151535630226,-0.2778447568416595,-0.9546577334403992,0,0,0,-1,-1,16336.74327125,unknown,2,2021-04-05 21:54:29.709 -0400,2021-04-05 19:23:45.401 -0400,796,1.436661,0,0,588.679,0,0,2021-04-05 21:54:32.276 -0400,639366874.8519021,0,-2.39,98.19502,1,0.63
2021-04-05 21:54:35.462 -0400,0,0,0,0,0,0,0,0,0,16342.48942175,-0.103240966796875,-0.283905029296875,-0.9599761962890625,16342.47433475,-0.02494242269703169,-0.1081425552361331,0.2805835615009804,-0.001779868733137846,0.08701431751251221,0.04202016070485115,-2.875924110412598e-06,-0.003189206123352051,-0.005961894989013672,XArbitraryZVertical,0.1389494374583833,-0.05525107065223874,-0.01988694058735193,0.9885570317409195,-0.1037111133337021,-0.2769164443016052,-0.9552807211875916,0,0,0,-1,-1,16336.74327125,unknown,2,2021-04-05 21:54:29.709 -0400,2021-04-05 19:23:45.401 -0400,796,1.436661,0,0,588.679,0,0,2021-04-05 21:54:32.276 -0400,639366874.8519021,0,-2.39,98.19502,1,0.63
2021-04-05 21:54:35.502 -0400,0,0,0,0,0,0,0,0,0,16342.52462775,-0.1050567626953125,-0.2948150634765625,-0.959228515625,16342.50451675,-0.02346101415393985,-0.1070238878476685,0.2799129355829997,-0.03576236963272095,0.03798075020313263,0.04126380383968353,-0.005736216902732849,-0.009281069040298462,-0.001191258430480957,XArbitraryZVertical,0.1386694612607182,-0.05459380191218879,-0.01905975350639056,0.9886491318192868,-0.1026622205972672,-0.2762719690799713,-0.9555805921554565,0,0,0,-1,-1,16336.74327125,unknown,2,2021-04-05 21:54:29.709 -0400,2021-04-05 19:23:45.401 -0400,796,1.436661,0,0,588.679,0,0,2021-04-05 21:54:32.276 -0400,639366874.8519021,0,-2.39,98.19502,1,0.63
2021-04-05 21:54:35.533 -0400,0,0,0,0,0,0,0,0,0,16342.55979475,-0.1054534912109375,-0.2842864990234375,-0.978424072265625,16342.53466775,-0.02268906654531319,-0.1071097029598517,0.2783125005506473,-0.04118387773633003,-0.01924005523324013,0.01310677267611027,-0.0009073764085769653,-0.01754871010780334,-0.001967072486877441,XArbitraryZVertical,0.1378984038970206,-0.05457967760509652,-0.01864295563328723,0.9887656949089374,-0.1027913615107536,-0.2747334837913513,-0.9560101628303528,0,0,0,-1,-1,16336.74327125,unknown,2,2021-04-05 21:54:29.709 -0400,2021-04-05 19:23:45.401 -0400,796,1.436661,0,0,588.679,0,0,2021-04-05 21:54:32.276 -0400,639366874.8519021,0,-2.39,98.19502,1,0.63
2021-04-05 21:54:35.573 -0400,0,0,0,0,0,0,0,0,0,16342.59503175,-0.110198974609375,-0.2811126708984375,-0.9694366455078125,16342.56484975,-0.02223625229448043,-0.1078788809420494,0.2776270506497531,0.0212896429002285,-0.006775456946343184,0.01780002750456333,-0.001906566321849823,-0.01021221280097961,-0.02230620384216309,XArbitraryZVertical,0.1375647318216144,-0.0549275134079871,-0.01845435869139953,0.9887964345641608,-0.1035469174385071,-0.2740743458271027,-0.9561178088188171,0,0,0,-1,-1,16336.74327125,unknown,2,2021-04-05 21:54:29.709 -0400,2021-04-05 19:23:45.401 -0400,796,1.436661,0,0,588.679,0,0,2021-04-05 21:54:32.276 -0400,639366874.8519021,0,-2.39,98.19502,1,0.63
2021-04-05 21:54:35.604 -0400,0,0,0,0,0,0,0,0,0,16342.63019875,-0.10400390625,-0.2729949951171875,-0.952362060546875,16342.62518275,-0.02177221210256159,-0.1068658017302772,0.2797382844168988,0.005567815154790878,0.04653873294591904,0.00497422693297267,-0.006492488086223602,-0.00307077169418335,-0.007459461688995361,XArbitraryZVertical,0.1386305991754143,-0.05439825253236996,-0.01820948013017353,0.9886813941198948,-0.1025163009762764,-0.2761041224002838,-0.9556447863578796,0,0,0,-1,-1,16336.74327125,unknown,2,2021-04-05 21:54:29.709 -0400,2021-04-05 19:23:45.401 -0400,796,1.436661,0,0,588.679,0,0,2021-04-05 21:54:32.276 -0400,639366874.8519021,0,-2.39,98.19502,1,0.63
2021-04-05 21:54:35.643 -0400,0,0,0,0,0,0,0,0,0,16342.66540475,-0.101959228515625,-0.2748260498046875,-0.95263671875,16342.65536475,-0.02113849366574356,-0.1063849004998107,0.2805205708827216,0.05023717135190964,0.006149785127490759,0.02622881531715393,-0.0005968660116195679,0.00447121262550354,0.006534814834594727,XArbitraryZVertical,0.1390389106212419,-0.05411777966242574,-0.01788288495915452,0.9886453485925086,-0.1020337492227554,-0.2768559157848358,-0.9554789066314697,0,0,0,-1,-1,16336.74327125,unknown,2,2021-04-05 21:54:29.709 -0400,2021-04-05 19:23:45.401 -0400,796,1.436661,0,0,588.679,0,0,2021-04-05 21:54:32.276 -0400,639366874.8519021,0,-2.39,98.19502,1,0.63
2021-04-05 21:54:35.674 -0400,0,0,0,0,0,0,0,0,0,16342.70060275,-0.11090087890625,-0.275604248046875,-0.950408935546875,16342.68551575,-0.01975089820904003,-0.1077669387911813,0.282141814889356,0.07320382446050644,-0.04234873503446579,0.04016873240470886,0.003925256431102753,0.003938257694244385,0.002130687236785889,XArbitraryZVertical,0.1398659689383548,-0.05470625976337958,-0.01733516271451309,0.9885061185175648,-0.1033057495951653,-0.2784134149551392,-0.9548894762992859,0,0,0,-1,-1,16336.74327125,unknown,2,2021-04-05 21:54:29.709 -0400,2021-04-05 19:23:45.401 -0400,796,1.436661,0,0,588.679,0,0,2021-04-05 21:54:32.276 -0400,639366874.8519021,0,-2.39,98.19502,1,0.63
2021-04-05 21:54:35.748 -0400,0,0,0,0,0,0,0,0,0,16342.73580875,-0.1121063232421875,-0.2877960205078125,-0.939544677734375,16342.71569775,-0.01835836640201433,-0.1087034517871444,0.2836770921394167,0.03615403175354004,0.007419703528285027,0.02466132864356041,-0.007357761263847351,-0.006748765707015991,0.0004783272743225098,XArbitraryZVertical,0.1406550950880926,-0.05507282679304057,-0.01675269854997604,0.988383764526362,-0.1041534692049026,-0.2798876762390137,-0.9543662667274475,0,0,0,-1,-1,16336.74327125,unknown,2,2021-04-05 21:54:29.709 -0400,2021-04-05 19:23:45.401 -0400,796,1.436661,0,0,588.679,0,0,2021-04-05 21:54:32.276 -0400,639366874.8519021,0,-2.39,98.19502,1,0.63
2021-04-05 21:54:35.794 -0400,0,0,0,0,0,0,0,0,0,16342.77100675,-0.103668212890625,-0.276763916015625,-0.9467315673828125,16342.74587975,-0.01758201768397194,-0.108288532082714,0.2840512020577927,0.01273591257631779,0.01268680021166801,0.03091870807111263,-0.004850640892982483,-0.005855560302734375,0.01884990930557251,XArbitraryZVertical,0.1408647692315746,-0.05481336743702075,-0.0163496368830629,0.988375035469633,-0.1037461534142494,-0.2802467942237854,-0.9543052315711975,0,0,0,-1,-1,16336.74327125,unknown,2,2021-04-05 21:54:29.709 -0400,2021-04-05 19:23:45.401 -0400,796,1.436661,0,0,588.679,0,0,2021-04-05 21:54:32.276 -0400,639366874.8519021,0,-2.39,98.19502,1,0.63
2021-04-05 21:54:35.799 -0400,0,0,0,0,0,0,0,0,0,16342.80621375,-0.0987091064453125,-0.2696380615234375,-0.96185302734375,16342.77603175,-0.01650849727973241,-0.1091407519777665,0.2843844027605374,0.01133059710264206,-0.03778891265392303,0.03324339538812637,0.0008810088038444519,0.003802657127380371,0.007392048835754395,XArbitraryZVertical,0.1410520869783002,-0.05515897207244606,-0.01588794727401742,0.9883366963497935,-0.1045492142438889,-0.2805666327476501,-0.9541236162185669,0,0,0,-1,-1,16336.74327125,unknown,2,2021-04-05 21:54:29.709 -0400,2021-04-05 19:23:45.401 -0400,796,1.436661,0,0,588.679,0,0,2021-04-05 21:54:32.276 -0400,639366874.8519021,0,-2.39,98.19502,1,0.63
2021-04-05 21:54:35.816 -0400,0,0,0,0,0,0,0,0,0,16342.84141075,-0.0994415283203125,-0.2763519287109375,-0.965606689453125,16342.80621375,-0.0153900326392143,-0.1108914306193844,0.2842396854788961,-0.03999064862728119,-0.04594803601503372,0.03219251334667206,0.008262492716312408,0.008668661117553711,-0.00640869140625,XArbitraryZVertical,0.1409979197527877,-0.05594521945409131,-0.01545483544388805,0.9883070529615433,-0.1062239110469818,-0.2804277241230011,-0.9539794325828552,0,0,0,-1,-1,16336.74327125,unknown,2,2021-04-05 21:54:29.709 -0400,2021-04-05 19:23:45.401 -0400,796,1.436661,0,0,588.679,0,0,2021-04-05 21:54:32.276 -0400,639366874.8519021,0,-2.39,98.19502,1,0.63
2021-04-05 21:54:35.855 -0400,0,0,0,0,0,0,0,0,0,16342.87661775,-0.1060943603515625,-0.282928466796875,-0.931640625,16342.86654675,-0.01305055744449325,-0.1111766036201683,0.2819486674328989,-0.02369644120335579,0.05299505218863487,0.04790588095784187,-0.005615659058094025,0.0006552040576934814,0.01304155588150024,XArbitraryZVertical,0.1399288857737579,-0.05592276041393827,-0.0142569246960084,0.9884782738454981,-0.106566958129406,-0.2782278954982758,-0.954585075378418,0,0,0,-1,-1,16336.74327125,unknown,2,2021-04-05 21:54:29.709 -0400,2021-04-05 19:23:45.401 -0400,796,1.436661,0,0,588.679,0,0,2021-04-05 21:54:32.276 -0400,639366874.8519021,0,-2.39,98.19502,1,0.63
2021-04-05 21:54:35.886 -0400,0,0,0,0,0,0,0,0,0,16342.91178475,-0.1025390625,-0.28399658203125,-0.948760986328125,16342.89672875,-0.0119072959376311,-0.1108011758205987,0.2804351812508579,-0.06522273272275925,-0.009593102149665356,0.04259790107607841,0.0009235963225364685,-0.0006157457828521729,0.01859533786773682,XArbitraryZVertical,0.1392152552181305,-0.05565863014377214,-0.01362474818646926,0.9886028137458585,-0.1062550097703934,-0.2767738699913025,-0.9550424814224243,0,0,0,-1,-1,16336.74327125,unknown,2,2021-04-05 21:54:29.709 -0400,2021-04-05 19:23:45.401 -0400,796,1.436661,0,0,588.679,0,0,2021-04-05 21:54:32.276 -0400,639366874.8519021,0,-2.39,98.19502,1,0.63
2021-04-05 21:54:35.925 -0400,0,0,0,0,0,0,0,0,0,16342.94702175,-0.1038360595703125,-0.282623291015625,-0.9558258056640625,16342.92687975,-0.01089887320013535,-0.1113866502817613,0.2781062715143902,-0.08508415520191193,-0.03209742903709412,0.03566364571452141,0.004346452653408051,-0.007218390703201294,0.008001565933227539,XArbitraryZVertical,0.1380880804600434,-0.05588057405227358,-0.01310373614671752,0.988755461557464,-0.1068855077028275,-0.2745351791381836,-0.9556180834770203,0,0,0,-1,-1,16336.74327125,unknown,2,2021-04-05 21:54:29.709 -0400,2021-04-05 19:23:45.401 -0400,796,1.436661,0,0,588.679,0,0,2021-04-05 21:54:32.276 -0400,639366874.8519021,0,-2.39,98.19502,1,0.63
2021-04-05 21:54:35.955 -0400,0,0,0,0,0,0,0,0,0,16342.98218875,-0.1067962646484375,-0.285491943359375,-0.9544525146484375,16342.95706175,-0.00987630109912827,-0.1131048445453468,0.2753099570614504,-0.08696792274713516,-0.06740707159042358,0.04488407447934151,0.005143657326698303,-0.01372304558753967,-0.0002593398094177246,XArbitraryZVertical,0.1367231333329937,-0.05666345490978732,-0.01263952702085483,0.9889066658375545,-0.1086135059595108,-0.2718452215194702,-0.9561920762062073,0,0,0,-1,-1,16336.74327125,unknown,2,2021-04-05 21:54:29.709 -0400,2021-04-05 19:23:45.401 -0400,796,1.436661,0,0,588.679,0,0,2021-04-05 21:54:32.276 -0400,639366874.8519021,0,-2.39,98.19502,1,0.63
2021-04-05 21:54:35.995 -0400,0,0,0,0,0,0,0,0,0,16343.01739475,-0.104522705078125,-0.2693023681640625,-0.971221923828125,16342.98724375,-0.009412506972893154,-0.1157784894762132,0.2733004258824248,-0.09519705921411514,-0.09860921651124954,0.009351130574941635,0.004436247050762177,-0.0155811607837677,0.001986443996429443,XArbitraryZVertical,0.1357258744678217,-0.05795696740474953,-0.01253604378421441,0.988970347362232,-0.1112325116991997,-0.2699108421802521,-0.9564389586448669,0,0,0,-1,-1,16336.74327125,unknown,2,2021-04-05 21:54:29.709 -0400,2021-04-05 19:23:45.401 -0400,796,1.436661,0,0,588.679,0,0,2021-04-05 21:54:32.276 -0400,639366874.8519021,0,-2.39,98.19502,1,0.63
2021-04-05 21:54:36.026 -0400,0,0,0,0,0,0,0,0,0,16343.05259275,-0.0953216552734375,-0.25244140625,-0.9879608154296875,16343.01739475,-0.01004988327991676,-0.1189227243390246,0.2710317002339322,-0.09065359830856323,-0.1229508221149445,-0.01771585643291473,0.009971983730792999,-0.007436186075210571,-0.01120543479919434,XArbitraryZVertical,0.1345651090384422,-0.05955842704271128,-0.01299853412093347,0.9890278194188219,-0.114311583340168,-0.2677256166934967,-0.9566900730133057,0,0,0,-1,-1,16336.74327125,unknown,2,2021-04-05 21:54:29.709 -0400,2021-04-05 19:23:45.401 -0400,796,1.436661,0,0,588.679,0,0,2021-04-05 21:54:32.276 -0400,639366874.8519021,0,-2.39,98.19502,1,0.63
2021-04-05 21:54:36.067 -0400,0,0,0,0,0,0,0,0,0,16343.08779875,-0.1134490966796875,-0.2380523681640625,-0.945465087890625,16343.07775875,-0.0106122240204613,-0.1239744250138671,0.2692127328417265,0.005515838973224163,-0.08334670215845108,0.05840262770652771,0.02287430316209793,0.0206112265586853,-0.008810997009277344,XArbitraryZVertical,0.1336148907191755,-0.06209700568630614,-0.01356124622804279,0.9889930004916739,-0.1192030385136604,-0.2659726142883301,-0.9565820693969727,0,0,0,-1,-1,16336.74327125,unknown,2,2021-04-05 21:54:29.709 -0400,2021-04-05 19:23:45.401 -0400,796,1.436661,0,0,588.679,0,0,2021-04-05 21:54:32.276 -0400,639366874.8519021,0,-2.39,98.19502,1,0.63
2021-04-05 21:54:36.097 -0400,0,0,0,0,0,0,0,0,0,16343.12299675,-0.13812255859375,-0.2356719970703125,-0.932708740234375,16343.10790975,-0.008496121218987941,-0.126050369809571,0.2694997834146922,0.01263304799795151,-0.05855738744139671,0.06290870159864426,-0.007300011813640594,0.02189499139785767,0.01846683025360107,XArbitraryZVertical,0.1338094013437912,-0.06298151621861105,-0.01266245911908708,0.9889226943146471,-0.1211789920926094,-0.2662492990493774,-0.9562567472457886,0,0,0,-1,-1,16336.74327125,unknown,2,2021-04-05 21:54:29.709 -0400,2021-04-05 19:23:45.401 -0400,796,1.436661,0,0,588.679,0,0,2021-04-05 21:54:32.276 -0400,639366874.8519021,0,-2.39,98.19502,1,0.63
2021-04-05 21:54:36.137 -0400,0,0,0,0,0,0,0,0,0,16343.15820275,-0.1288604736328125,-0.220489501953125,-0.918975830078125,16343.13809175,-0.007397545409480331,-0.1270059767645254,0.2687679278580246,-0.01388075016438961,-0.0325671061873436,0.03383102267980576,-0.01815665513277054,0.03617361187934875,0.02264827489852905,XArbitraryZVertical,0.1334762684708085,-0.06338228853115482,-0.01216037225853409,0.9889484394699273,-0.1221173852682114,-0.2655437886714935,-0.9563335180282593,0,0,0,-1,-1,16336.74327125,unknown,2,2021-04-05 21:54:29.709 -0400,2021-04-05 19:23:45.401 -0400,796,1.436661,0,0,588.679,0,0,2021-04-05 21:54:32.276 -0400,639366874.8519021,0,-2.39,98.19502,1,0.63
2021-04-05 21:54:36.167 -0400,0,0,0,0,0,0,0,0,0,16343.19340075,-0.117706298828125,-0.2147979736328125,-0.906280517578125,16343.16824375,-0.006315112301375398,-0.1275695581745787,0.2682704996838227,0.04222316667437553,-0.05033168196678162,0.04434327036142349,-0.00408162921667099,0.04780951142311096,0.04008996486663818,XArbitraryZVertical,0.1332613013666398,-0.06359006574726185,-0.01164715330914939,0.9889701936633891,-0.1226731315255165,-0.2650642096996307,-0.9563954472541809,0,0,0,-1,-1,16336.74327125,unknown,2,2021-04-05 21:54:29.709 -0400,2021-04-05 19:23:45.401 -0400,796,1.436661,0,0,588.679,0,0,2021-04-05 21:54:32.276 -0400,639366874.8519021,0,-2.39,98.19502,1,0.63
2021-04-05 21:54:36.247 -0400,0,0,0,0,0,0,0,0,0,16343.22860675,-0.1168365478515625,-0.2497711181640625,-0.919097900390625,16343.19842475,-0.003998762202587151,-0.1302001194012034,0.269534640777874,0.07851846516132355,-0.07711990922689438,0.08600001782178879,0.00743865966796875,0.05148488283157349,0.04945594072341919,XArbitraryZVertical,0.1339459862304624,-0.06473215841634664,-0.01071768831661069,0.9888140638163663,-0.1251449584960938,-0.2662829160690308,-0.9557364583015442,0,0,0,-1,-1,16336.74327125,unknown,2,2021-04-05 21:54:29.709 -0400,2021-04-05 19:23:45.401 -0400,796,1.436661,0,0,588.679,0,0,2021-04-05 21:54:32.276 -0400,639366874.8519021,0,-2.39,98.19502,1,0.63
2021-04-05 21:54:36.293 -0400,0,0,0,0,0,0,0,0,0,16343.26377475,-0.118682861328125,-0.267791748046875,-0.9476776123046875,16343.25875875,0.003600965419018129,-0.1321595036612864,0.2695620013855204,-0.05305178835988045,0.08168219774961472,0.1136673018336296,0.01242290437221527,0.000546872615814209,0.03144043684005737,XArbitraryZVertical,0.1341976211544099,-0.06519129867179399,-0.00709261917403889,0.9887825298503534,-0.1270164102315903,-0.2663092911243439,-0.9554821848869324,0,0,0,-1,-1,16336.74327125,unknown,2,2021-04-05 21:54:29.709 -0400,2021-04-05 19:23:45.401 -0400,796,1.436661,0,0,588.679,0,0,2021-04-05 21:54:32.276 -0400,639366874.8519021,0,-2.39,98.19502,1,0.63
2021-04-05 21:54:36.298 -0400,0,0,0,0,0,0,0,0,0,16343.29898075,-0.157958984375,-0.271026611328125,-0.995208740234375,16343.28894075,0.00795132192387471,-0.1291280537754052,0.2646309200607026,-0.1513768285512924,0.2066643834114075,0.1920012086629868,-0.01554461568593979,-0.008558094501495361,-0.02580243349075317,XArbitraryZVertical,0.131908058990641,-0.06343130410939188,-0.004579241286245485,0.9892197699710271,-0.1242869198322296,-0.2615530490875244,-0.9571534395217896,0,0,0,-1,-1,16336.74327125,unknown,2,2021-04-05 21:54:29.709 -0400,2021-04-05 19:23:45.401 -0400,796,1.436661,0,0,588.679,0,0,2021-04-05 21:54:32.276 -0400,639366874.8519021,0,-2.39,98.19502,1,0.63
2021-04-05 21:54:36.308 -0400,0,0,0,0,0,0,0,0,0,16343.33417875,-0.151947021484375,-0.3162994384765625,-0.9431610107421875,16343.31912175,0.01545266733035836,-0.1231440172376652,0.2598123713055963,-0.04014041647315025,0.2644624710083008,0.2977675497531891,-0.02891825884580612,-0.0336892306804657,-0.02063184976577759,XArbitraryZVertical,0.1297631946982151,-0.0600138418773221,-0.000324191387385181,0.9897271469548264,-0.1187105178833008,-0.2568992376327515,-0.9591196775436401,0,0,0,-1,-1,16336.74327125,unknown,2,2021-04-05 21:54:29.709 -0400,2021-04-05 19:23:45.401 -0400,796,1.436661,0,0,588.679,0,0,2021-04-05 21:54:32.276 -0400,639366874.8519021,0,-2.39,98.19502,1,0.63
2021-04-05 21:54:36.348 -0400,0,0,0,0,0,0,0,0,0,16343.36938475,-0.161407470703125,-0.3452301025390625,-0.9432525634765625,16343.34927375,0.02446290244001195,-0.1188490524516267,0.2590743927594046,-0.02290074527263641,0.1792228370904922,0.2552401721477509,-0.04232414811849594,-0.0729614794254303,0.02427709102630615,XArbitraryZVertical,0.1296578972453469,-0.05731040443355887,0.004436176012795529,0.9898911977929773,-0.1146124973893166,-0.2561859488487244,-0.9598087072372437,0,0,0,-1,-1,16336.74327125,unknown,2,2021-04-05 21:54:29.709 -0400,2021-04-05 19:23:45.401 -0400,796,1.436661,0,0,588.679,0,0,2021-04-05 21:54:32.276 -0400,639366874.8519021,0,-2.39,98.19502,1,0.63
2021-04-05 21:54:36.379 -0400,0,0,0,0,0,0,0,0,0,16343.40458275,-0.148651123046875,-0.2913665771484375,-0.9732513427734375,16343.37945575,0.02954123881998554,-0.1166340738909357,0.2556346729916609,-0.1962396800518036,0.114576555788517,0.09145648777484894,-0.04985691606998444,-0.08835756778717041,0.01927942037582397,XArbitraryZVertical,0.1280928484827154,-0.05592269156917207,0.007196066073147419,0.9901581443469532,-0.11258814483881,-0.252859503030777,-0.9609297513961792,0,0,0,-1,-1,16336.74327125,unknown,2,2021-04-05 21:54:29.709 -0400,2021-04-05 19:23:45.401 -0400,796,1.436661,0,0,588.679,0,0,2021-04-05 21:54:32.276 -0400,639366874.8519021,0,-2.39,98.19502,1,0.63
2021-04-05 21:54:36.418 -0400,0,0,0,0,0,0,0,0,0,16343.439779,-0.1148834228515625,-0.24365234375,-1.029434204101562,16343.40960675,0.02867963334246281,-0.1161165352525746,0.2486581344355116,-0.3430322706699371,-0.02892838977277279,-0.0892125591635704,-0.03635865449905396,-0.04526305198669434,-0.01053464412689209,XArbitraryZVertical,0.1246129569873003,-0.05579663060410191,0.007009703388181368,0.9906105605824129,-0.1122924610972404,-0.2461035847663879,-0.9627166986465454,0,0,0,-1,-1,16336.74327125,unknown,2,2021-04-05 21:54:29.709 -0400,2021-04-05 19:23:45.401 -0400,796,1.436661,0,0,588.679,0,0,2021-04-05 21:54:32.276 -0400,639366874.8519021,0,-2.39,98.19502,1,0.63
2021-04-05 21:54:36.449 -0400,0,0,0,0,0,0,0,0,0,16343.474977,-0.122528076171875,-0.23602294921875,-0.972747802734375,16343.469961,0.02208201145853727,-0.1239805181654859,0.2387164791959418,-0.03940587490797043,-0.1862059980630875,-0.04023639857769012,0.007760100066661835,0.004003241658210754,-0.0306430459022522,XArbitraryZVertical,0.119518195068712,-0.06019389755029522,0.003564856728553991,0.9909991678568028,-0.1201563328504562,-0.2364556938409805,-0.9641841650009155,0,0,0,-1,-1,16336.74327125,unknown,2,2021-04-05 21:54:29.709 -0400,2021-04-05 19:23:45.401 -0400,796,1.436661,0,0,588.679,0,0,2021-04-05 21:54:32.276 -0400,639366874.8519021,0,-2.39,98.19502,1,0.63
2021-04-05 21:54:36.488 -0400,0,0,0,0,0,0,0,0,0,16343.510183,-0.1510162353515625,-0.2418670654296875,-0.8984527587890625,16343.500112,0.02064593479475618,-0.1304845226134522,0.2408879569242215,0.04335779324173927,-0.2222362905740738,-0.09908750653266907,-0.01826508343219757,-0.009329304099082947,0.0397295355796814,XArbitraryZVertical,0.1205590990983474,-0.06348254692420782,0.002393121235847303,0.9906713119653013,-0.1263577044010162,-0.2385650426149368,-0.9628709554672241,0,0,0,-1,-1,16336.74327125,unknown,2,2021-04-05 21:54:29.709 -0400,2021-04-05 19:23:45.401 -0400,796,1.436661,0,0,588.679,0,0,2021-04-05 21:54:32.276 -0400,639366874.8519021,0,-2.39,98.19502,1,0.63
2021-04-05 21:54:36.520 -0400,0,0,0,0,0,0,0,0,0,16343.54535,-0.137847900390625,-0.2032928466796875,-0.9543609619140625,16343.530294,0.01473192719545602,-0.1361758003574176,0.242087153764956,-0.0395951122045517,-0.2769385874271393,-0.2858625650405884,-0.01860921084880829,0.0126480907201767,0.06307893991470337,XArbitraryZVertical,0.1209626341264105,-0.06664830919288339,-0.0009198588194010013,0.9904166959727018,-0.131796658039093,-0.2397294342517853,-0.9618520736694336,0,0,0,-1,-1,16336.74327125,unknown,2,2021-04-05 21:54:29.709 -0400,2021-04-05 19:23:45.401 -0400,796,1.436661,0,0,588.679,0,0,2021-04-05 21:54:32.276 -0400,639366874.8519021,0,-2.39,98.19502,1,0.63
2021-04-05 21:54:36.559 -0400,0,0,0,0,0,0,0,0,0,16343.580587,-0.1090087890625,-0.1735076904296875,-1.039993286132812,16343.560476,0.00323234164177365,-0.1415233218930697,0.2398798161514817,-0.1629214435815811,-0.2814254462718964,-0.3926959335803986,0.007190823554992676,0.04585915803909302,-0.0268244743347168,XArbitraryZVertical,0.1194663993921781,-0.07000169580357095,-0.006859193948554511,0.9903436295146383,-0.1370125859975815,-0.2375858873128891,-0.9616550803184509,0,0,0,-1,-1,16336.74327125,unknown,2,2021-04-05 21:54:29.709 -0400,2021-04-05 19:23:45.401 -0400,796,1.436661,0,0,588.679,0,0,2021-04-05 21:54:32.276 -0400,639366874.8519021,0,-2.39,98.19502,1,0.63
2021-04-05 21:54:36.590 -0400,0,0,0,0,0,0,0,0,0,16343.615754,-0.0852813720703125,-0.167327880859375,-1.029129028320312,16343.590627,-0.009475132988849567,-0.1459017312394042,0.2382109802990364,-0.07208511233329773,-0.1654723882675171,-0.3913907110691071,0.03356742858886719,0.06656137108802795,-0.081470787525177,XArbitraryZVertical,0.1181638579370009,-0.07293042881229686,-0.01335200976352656,0.990222275562649,-0.1412792205810547,-0.2359645068645477,-0.961436927318573,0,0,0,-1,-1,16336.74327125,unknown,2,2021-04-05 21:54:29.709 -0400,2021-04-05 19:23:45.401 -0400,796,1.436661,0,0,588.679,0,0,2021-04-05 21:54:32.276 -0400,639366874.8519021,0,-2.39,98.19502,1,0.63
2021-04-05 21:54:36.630 -0400,0,0,0,0,0,0,0,0,0,16343.650961,-0.0683441162109375,-0.1497802734375,-0.971771240234375,16343.620809,-0.02038247118179176,-0.1457032522045824,0.2397049273142804,0.04252501204609871,0.03524793311953545,-0.3124251365661621,0.05575568974018097,0.07008807361125946,-0.06801390647888184,XArbitraryZVertical,0.1185059378588423,-0.07347656761688659,-0.01879351839237786,0.9900526444837446,-0.1410370469093323,-0.237415999174118,-0.9611150622367859,0,0,0,-1,-1,16336.74327125,unknown,2,2021-04-05 21:54:29.709 -0400,2021-04-05 19:23:45.401 -0400,796,1.436661,0,0,588.679,0,0,2021-04-05 21:54:32.276 -0400,639366874.8519021,0,-2.39,98.19502,1,0.63
2021-04-05 21:54:36.661 -0400,0,0,0,0,0,0,0,0,0,16343.686158,-0.1145172119140625,-0.1513671875,-1.080902099609375,16343.681142,-0.03045394919546096,-0.137714468634265,0.236089542273265,-0.1895227879285812,0.02552499994635582,-0.02045791409909725,0.03039833903312683,0.08914224803447723,-0.0725894570350647,XArbitraryZVertical,0.1164377816522875,-0.07010507789834432,-0.02318661884860899,0.9904493192442437,-0.1334714591503143,-0.2339024394750595,-0.9630550146102905,0,0,0,-1,-1,16336.74327125,unknown,2,2021-04-05 21:54:29.709 -0400,2021-04-05 19:23:45.401 -0400,796,1.436661,0,0,588.679,0,0,2021-04-05 21:54:32.276 -0400,639366874.8519021,0,-2.39,98.19502,1,0.63
2021-04-05 21:54:36.700 -0400,0,0,0,0,0,0,0,0,0,16343.721365,-0.1348724365234375,-0.1929931640625,-1.1767578125,16343.711324,-0.03064603308423768,-0.1350054895156915,0.2264237298872665,-0.2240248471498489,0.07867690175771713,0.1059069484472275,-0.0007061958312988281,0.05916494131088257,-0.1899855136871338,XArbitraryZVertical,0.1116727631259776,-0.06873885989662154,-0.02280876895009391,0.9911023749442324,-0.1311602592468262,-0.2244939804077148,-0.9656082987785339,0,0,0,-1,-1,16336.74327125,unknown,2,2021-04-05 21:54:29.709 -0400,2021-04-05 19:23:45.401 -0400,796,1.436661,0,0,588.679,0,0,2021-04-05 21:54:32.276 -0400,639366874.8519021,0,-2.39,98.19502,1,0.63
2021-04-05 21:54:36.783 -0400,0,0,0,0,0,0,0,0,0,16343.756563,-0.189910888671875,-0.2199554443359375,-1.135223388671875,16343.741476,-0.02631086697332608,-0.1329594790847506,0.2237527946847842,0.08549036830663681,0.1223919093608856,0.2099947184324265,-0.02797845005989075,0.01998606324195862,-0.2000994086265564,XArbitraryZVertical,0.1105184662365837,-0.06747519280806462,-0.0204598353635934,0.9913698828891302,-0.1292633712291718,-0.2218904197216034,-0.9664655327796936,0,0,0,-1,-1,16336.74327125,unknown,2,2021-04-05 21:54:29.709 -0400,2021-04-05 19:23:45.401 -0400,796,1.436661,0,0,588.679,0,0,2021-04-05 21:54:32.276 -0400,639366874.8519021,0,-2.39,98.19502,1,0.63
2021-04-05 21:54:36.789 -0400,0,0,0,0,0,0,0,0,0,16343.791769,-0.223663330078125,-0.28289794921875,-0.9569854736328125,16343.771658,-0.01645612858501827,-0.1308467369500595,0.2311307218651399,0.4740262627601624,0.1956790089607239,0.3320955634117126,-0.07415248453617096,-0.0179004967212677,-0.1299903988838196,XArbitraryZVertical,0.1145233839500527,-0.06588515166015285,-0.01569382431425836,0.9911091325828187,-0.1270041316747665,-0.2290783226490021,-0.9650870561599731,0,0,0,-1,-1,16336.74327125,unknown,2,2021-04-05 21:54:29.709 -0400,2021-04-05 19:23:45.401 -0400,796,1.436661,0,0,588.679,0,0,2021-04-05 21:54:32.276 -0400,639366874.8519021,0,-2.39,98.19502,1,0.63
2021-04-05 21:54:36.801 -0400,0,0,0,0,0,0,0,0,0,16343.826967,-0.21856689453125,-0.295654296875,-0.816009521484375,16343.801809,-0.005707088719730917,-0.1247466813716574,0.2446546694937582,0.4658302068710327,0.3695826530456543,0.2194956541061401,-0.1058748289942741,-0.04580366611480713,0.03477942943572998,XArbitraryZVertical,0.1216081634911499,-0.06221438162647182,-0.01043269493273929,0.9905715129417578,-0.1207181885838509,-0.2422212958335876,-0.9626816511154175,0,0,0,-1,-1,16336.74327125,unknown,2,2021-04-05 21:54:29.709 -0400,2021-04-05 19:23:45.401 -0400,796,1.436661,0,0,588.679,0,0,2021-04-05 21:54:32.276 -0400,639366874.8519021,0,-2.39,98.19502,1,0.63
2021-04-05 21:54:36.841 -0400,0,0,0,0,0,0,0,0,0,16343.862173,-0.1459808349609375,-0.3055877685546875,-0.8335113525390625,16343.831991,-0.001653938130710551,-0.1135774421706526,0.2550309313392537,0.1935736536979675,0.4126799404621124,-0.04747971147298813,-0.1088991910219193,-0.04337900876998901,0.1454114317893982,XArbitraryZVertical,0.1269185716553775,-0.0564023546910644,-0.00803688054189376,0.9902756483269571,-0.1096676960587502,-0.2522753477096558,-0.9614208936691284,0,0,0,-1,-1,16336.74327125,unknown,2,2021-04-05 21:54:29.709 -0400,2021-04-05 19:23:45.401 -0400,796,1.436661,0,0,588.679,0,0,2021-04-05 21:54:32.276 -0400,639366874.8519021,0,-2.39,98.19502,1,0.63
2021-04-05 21:54:36.872 -0400,0,0,0,0,0,0,0,0,0,16343.89734,-0.0818634033203125,-0.298675537109375,-0.856536865234375,16343.862173,-0.006686227177917121,-0.1017972940868918,0.2571212448498763,-0.08159370720386505,0.2886985540390015,-0.2674728333950043,-0.05854896456003189,-0.05438786745071411,0.1339333653450012,XArbitraryZVertical,0.127871335865865,-0.05088457987340269,-0.009833920825611828,0.9904358110878639,-0.09828086942434311,-0.2542974948883057,-0.9621193408966064,0,0,0,-1,-1,16336.74327125,unknown,2,2021-04-05 21:54:29.709 -0400,2021-04-05 19:23:45.401 -0400,796,1.436661,0,0,588.679,0,0,2021-04-05 21:54:32.276 -0400,639366874.8519021,0,-2.39,98.19502,1,0.63
2021-04-05 21:54:36.911 -0400,0,0,0,0,0,0,0,0,0,16343.932577,-0.073974609375,-0.2918853759765625,-0.898345947265625,16343.922506,-0.02216909856769325,-0.08872361731312775,0.2560673811076721,0.03273151442408562,0.03355500474572182,-0.1535110622644424,0.01529877632856369,-0.02810925245285034,0.085673987865448,XArbitraryZVertical,0.1270631934392931,-0.04539547322870545,-0.01664487733476844,0.9907154042219352,-0.08571808785200119,-0.2532781362533569,-0.9635884165763855,0,0,0,-1,-1,16336.74327125,unknown,2,2021-04-05 21:54:29.709 -0400,2021-04-05 19:23:45.401 -0400,796,1.436661,0,0,588.679,0,0,2021-04-05 21:54:32.276 -0400,639366874.8519021,0,-2.39,98.19502,1,0.63
2021-04-05 21:54:36.941 -0400,0,0,0,0,0,0,0,0,0,16343.967744,-0.1215972900390625,-0.321258544921875,-0.9300689697265625,16343.952688,-0.02480586683680966,-0.08969455859006838,0.2576542598835675,0.04223284870386124,-0.1447530388832092,-0.05345993861556053,-0.0004338622093200684,-0.05776339769363403,0.05775350332260132,XArbitraryZVertical,0.1277806089723292,-0.04604909090526914,-0.01804667601769029,0.9905684552849808,-0.08661752194166183,-0.2548129558563232,-0.963103175163269,0,0,0,-1,-1,16336.74327125,unknown,2,2021-04-05 21:54:29.709 -0400,2021-04-05 19:23:45.401 -0400,796,1.436661,0,0,588.679,0,0,2021-04-05 21:54:32.276 -0400,639366874.8519021,0,-2.39,98.19502,1,0.63
2021-04-05 21:54:36.981 -0400,0,0,0,0,0,0,0,0,0,16344.00295,-0.1314544677734375,-0.2923126220703125,-0.9568328857421875,16343.982839,-0.0286615550780617,-0.09403201585396576,0.2572209658921332,-0.1064764559268951,-0.1748443245887756,-0.2119041234254837,-0.04516659677028656,-0.07350224256515503,0.01946890354156494,XArbitraryZVertical,0.1274333996400358,-0.04844166092523644,-0.0202234848642246,0.9904570318239277,-0.09080447256565094,-0.2543939352035522,-0.9628282785415649,0,0,0,-1,-1,16336.74327125,unknown,2,2021-04-05 21:54:29.709 -0400,2021-04-05 19:23:45.401 -0400,796,1.436661,0,0,588.679,0,0,2021-04-05 21:54:32.276 -0400,639366874.8519021,0,-2.39,98.19502,1,0.63
2021-04-05 21:54:37.012 -0400,0,0,0,0,0,0,0,0,0,16344.038148,-0.0881195068359375,-0.232177734375,-0.9860382080078125,16344.013021,-0.03876465914179288,-0.09702475083039092,0.2549323115243026,-0.1425015032291412,-0.2507440447807312,-0.3753237724304199,-0.03125828504562378,-0.03019928932189941,0.004038035869598389,XArbitraryZVertical,0.1260156364354356,-0.05055175361179993,-0.02536464416708394,0.9904146063897976,-0.09374170750379562,-0.2521799206733704,-0.9631291627883911,0,0,0,-1,-1,16336.74327125,unknown,2,2021-04-05 21:54:29.709 -0400,2021-04-05 19:23:45.401 -0400,796,1.436661,0,0,588.679,0,0,2021-04-05 21:54:32.276 -0400,639366874.8519021,0,-2.39,98.19502,1,0.63
2021-04-05 21:54:37.052 -0400,0,0,0,0,0,0,0,0,0,16344.073354,-0.070709228515625,-0.2093658447265625,-0.97088623046875,16344.043173,-0.05075193956622011,-0.1043044980315924,0.2562373964024693,0.01100380346179008,-0.4227482378482819,-0.3561235070228577,0.01259663701057434,0.02126479148864746,-0.02394509315490723,XArbitraryZVertical,0.1262418619252792,-0.05492221541074438,-0.03178932289927211,0.9899676478347486,-0.1007161438465118,-0.2534425854682922,-0.9620931148529053,0,0,0,-1,-1,16336.74327125,unknown,2,2021-04-05 21:54:29.709 -0400,2021-04-05 19:23:45.401 -0400,796,1.436661,0,0,588.679,0,0,2021-04-05 21:54:32.276 -0400,639366874.8519021,0,-2.39,98.19502,1,0.63
2021-04-05 21:54:37.082 -0400,0,0,0,0,0,0,0,0,0,16344.108552,-0.045654296875,-0.1945343017578125,-0.91558837890625,16344.073354,-0.0609595963869643,-0.1155920812908074,0.2613095504714808,0.09250987321138382,-0.3999014496803284,-0.3309304416179657,0.03868087381124496,0.0453636646270752,-0.01735347509384155,XArbitraryZVertical,0.1282600640103524,-0.06120870329570634,-0.03768705967115962,0.989132187778608,-0.1114195063710213,-0.2583458721637726,-0.9596056938171387,0,0,0,-1,-1,16336.74327125,unknown,2,2021-04-05 21:54:29.709 -0400,2021-04-05 19:23:45.401 -0400,796,1.436661,0,0,588.679,0,0,2021-04-05 21:54:32.276 -0400,639366874.8519021,0,-2.39,98.19502,1,0.63
2021-04-05 21:54:37.122 -0400,0,0,0,0,0,0,0,0,0,16344.143758,-0.038360595703125,-0.1771697998046875,-0.93048095703125,16344.133688,-0.07954600619398146,-0.125461331531784,0.264878559838619,-0.0957501158118248,-0.2581472098827362,-0.243312731385231,0.08581048995256424,0.07842713594436646,0.04970157146453857,XArbitraryZVertical,0.1292176239793841,-0.06733180989710714,-0.04760854184784969,0.9881814832466865,-0.1207683682441711,-0.2617920637130737,-0.9575384855270386,0,0,0,-1,-1,16336.74327125,unknown,2,2021-04-05 21:54:29.709 -0400,2021-04-05 19:23:45.401 -0400,796,1.436661,0,0,588.679,0,0,2021-04-05 21:54:32.276 -0400,639366874.8519021,0,-2.39,98.19502,1,0.63
2021-04-05 21:54:37.153 -0400,0,0,0,0,0,0,0,0,0,16344.178926,-0.0904388427734375,-0.17706298828125,-1.008056640625,16344.16387,-0.08756430803432048,-0.1321529351232888,0.2594460545684193,-0.2587412893772125,-0.4012246429920197,-0.1840681135654449,0.06035727262496948,0.08482271432876587,-0.008707523345947266,XArbitraryZVertical,0.1260878527785882,-0.0710603386505969,-0.05183892106242621,0.9881118486026135,-0.127358615398407,-0.2565451860427856,-0.9581045508384705,0,0,0,-1,-1,16336.74327125,unknown,2,2021-04-05 21:54:29.709 -0400,2021-04-05 19:23:45.401 -0400,796,1.436661,0,0,588.679,0,0,2021-04-05 21:54:32.276 -0400,639366874.8519021,0,-2.39,98.19502,1,0.63
2021-04-05 21:54:37.194 -0400,0,0,0,0,0,0,0,0,0,16344.214163,-0.1177825927734375,-0.2290802001953125,-0.988922119140625,16344.194051,-0.09333520202953799,-0.1393483069172727,0.250829571670641,-0.2253869771957397,-0.2880381047725677,-0.08144009113311768,0.03561325371265411,0.06005148589611053,-0.05842900276184082,XArbitraryZVertical,0.1214247158008171,-0.07481700680281644,-0.05487071450904748,0.9882548602405088,-0.1345512121915817,-0.2482076585292816,-0.9593169093132019,0,0,0,-1,-1,16336.74327125,unknown,2,2021-04-05 21:54:29.709 -0400,2021-04-05 19:23:45.401 -0400,796,1.436661,0,0,588.679,0,0,2021-04-05 21:54:32.276 -0400,639366874.8519021,0,-2.39,98.19502,1,0.63
2021-04-05 21:54:37.249 -0400,0,0,0,0,0,0,0,0,0,16344.24933,-0.1429901123046875,-0.2333984375,-0.9149627685546875,16344.224203,-0.09559018016160055,-0.1400609460136955,0.2447962435929685,-0.07318075001239777,0.007749689742922783,0.02985474094748497,0.01793350279331207,0.005725279450416565,-0.01650190353393555,XArbitraryZVertical,0.1183362901712252,-0.07518935651255988,-0.05583669719271992,0.9885471187970637,-0.1354414224624634,-0.2423586547374725,-0.9606861472129822,0,0,0,-1,-1,16336.74327125,unknown,2,2021-04-05 21:54:29.709 -0400,2021-04-05 19:23:45.401 -0400,796,1.436661,0,0,588.679,0,0,2021-04-05 21:54:32.276 -0400,639366874.8519021,0,-2.39,98.19502,1,0.63
2021-04-05 21:54:37.292 -0400,0,0,0,0,0,0,0,0,0,16344.284536,-0.1475830078125,-0.2560272216796875,-0.97711181640625,16344.254385,-0.0937852128470323,-0.1352661694481635,0.2406914586507035,-0.07300699502229691,0.1868156939744949,0.1262962967157364,-0.0120234489440918,0.004975706338882446,0.04733943939208984,XArbitraryZVertical,0.1165042941749191,-0.07263375972314401,-0.05453459869860533,0.9890283673644524,-0.1309666633605957,-0.2383742034435272,-0.9623021483421326,0,0,0,-1,-1,16336.74327125,unknown,2,2021-04-05 21:54:29.709 -0400,2021-04-05 19:23:45.401 -0400,796,1.436661,0,0,588.679,0,0,2021-04-05 21:54:32.276 -0400,639366874.8519021,0,-2.39,98.19502,1,0.63
2021-04-05 21:54:37.300 -0400,0,0,0,0,0,0,0,0,0,16344.319734,-0.142242431640625,-0.2688751220703125,-1.019424438476562,16344.284536,-0.09148524803923948,-0.130156391777445,0.2343416124327452,-0.217274472117424,0.1291923224925995,0.08658183366060257,-0.01897613704204559,-0.02176469564437866,0.004357218742370605,XArbitraryZVertical,0.1135800723094045,-0.06985306882778992,-0.05291151450201157,0.9896567938461183,-0.1262417435646057,-0.2322026491165161,-0.9644402265548706,0,0,0,-1,-1,16336.74327125,unknown,2,2021-04-05 21:54:29.709 -0400,2021-04-05 19:23:45.401 -0400,796,1.436661,0,0,588.679,0,0,2021-04-05 21:54:32.276 -0400,639366874.8519021,0,-2.39,98.19502,1,0.63
2021-04-05 21:54:37.334 -0400,0,0,0,0,0,0,0,0,0,16344.35494,-0.1435089111328125,-0.236541748046875,-0.9721221923828125,16344.3449,-0.08676633989780609,-0.119445524038904,0.2296062823241725,0.07131523638963699,0.2577190101146698,0.06788945943117142,-0.03514964878559113,-0.01524953544139862,-0.002908587455749512,XArbitraryZVertical,0.1116677397857283,-0.06419775128712402,-0.04983807441750117,0.9904166235363915,-0.1160344332456589,-0.2275941520929337,-0.9668179154396057,0,0,0,-1,-1,16336.74327125,unknown,2,2021-04-05 21:54:29.709 -0400,2021-04-05 19:23:45.401 -0400,796,1.436661,0,0,588.679,0,0,2021-04-05 21:54:32.276 -0400,639366874.8519021,0,-2.39,98.19502,1,0.63
2021-04-05 21:54:37.364 -0400,0,0,0,0,0,0,0,0,0,16344.390138,-0.12603759765625,-0.2360992431640625,-0.9835662841796875,16344.375051,-0.08477626467432821,-0.1138100521302281,0.2319582124097456,0.01895583793520927,0.2381183207035065,0.0394505113363266,-0.0331384539604187,0.004450321197509766,-0.008145153522491455,XArbitraryZVertical,0.1130343033442605,-0.06133720934218979,-0.04859817255999081,0.990504526682087,-0.1105230450630188,-0.2298837304115295,-0.9669219851493835,0,0,0,-1,-1,16336.74327125,unknown,2,2021-04-05 21:54:29.709 -0400,2021-04-05 19:23:45.401 -0400,796,1.436661,0,0,588.679,0,0,2021-04-05 21:54:32.276 -0400,639366874.8519021,0,-2.39,98.19502,1,0.63
2021-04-05 21:54:37.404 -0400,0,0,0,0,0,0,0,0,0,16344.425345375,-0.1175384521484375,-0.239898681640625,-0.958526611328125,16344.405233,-0.08325012041215227,-0.106973120300672,0.2326738551136102,0.02004805393517017,0.2787158787250519,0.05300771445035934,-0.006642520427703857,-0.01441502571105957,-0.01615136861801147,XArbitraryZVertical,0.1135986439347959,-0.05787700595797927,-0.0474727480915029,0.9907027914031883,-0.1038921400904655,-0.2305801510810852,-0.9674912095069885,0,0,0,-1,-1,16336.74327125,unknown,2,2021-04-05 21:54:29.709 -0400,2021-04-05 19:23:45.401 -0400,796,1.436661,0,0,588.679,0,0,2021-04-05 21:54:32.276 -0400,639366874.8519021,0,-2.39,98.19502,1,0.63
2021-04-05 21:54:37.435 -0400,0,0,0,0,0,0,0,0,0,16344.460543375,-0.121429443359375,-0.242034912109375,-0.9329071044921875,16344.435416375,-0.08073582902956901,-0.09974125890806954,0.2339268782787581,0.03232422471046448,0.3054250776767731,0.07996626198291779,-0.02361951023340225,-0.0071687251329422,0.01602470874786377,XArbitraryZVertical,0.1144588509143225,-0.05417270745904028,-0.04584398217181686,0.990889906272382,-0.09686388075351715,-0.2317992299795151,-0.9679290056228638,0,0,0,-1,-1,16336.74327125,unknown,2,2021-04-05 21:54:29.709 -0400,2021-04-05 19:23:45.401 -0400,796,1.436661,0,0,588.679,0,0,2021-04-05 21:54:32.276 -0400,639366874.8519021,0,-2.39,98.19502,1,0.63
2021-04-05 21:54:37.475 -0400,0,0,0,0,0,0,0,0,0,16344.495749375,-0.119293212890625,-0.25164794921875,-0.9778289794921875,16344.465567375,-0.07784369678945409,-0.09425861303408649,0.2335552450628862,-0.04788797348737717,0.1668773293495178,0.08118394017219543,-0.02986568957567215,-0.01059725880622864,0.03562414646148682,XArbitraryZVertical,0.1144741388417585,-0.05128425495481423,-0.04408904715638272,0.9911214555637186,-0.09156373888254166,-0.2314376980066299,-0.9685311913490295,0,0,0,-1,-1,16336.74327125,unknown,2,2021-04-05 21:54:29.709 -0400,2021-04-05 19:23:45.401 -0400,796,1.436661,0,0,588.679,0,0,2021-04-05 21:54:32.276 -0400,639366877.42532,0,-2.38,98.19479,1,0.63
2021-04-05 21:54:37.506 -0400,0,0,0,0,0,0,0,0,0,16344.530917375,-0.116973876953125,-0.2434844970703125,-0.98907470703125,16344.525901375,-0.07384955057588938,-0.09370830898734005,0.2302372114800502,-0.06157897412776947,0.001498103607445955,0.05718613043427467,-0.02637531608343124,-0.01425373554229736,-0.02154982089996338,XArbitraryZVertical,0.112942627482547,-0.05073101853554318,-0.04200803709437893,0.9914160221889806,-0.09110209345817566,-0.2282084822654724,-0.9693406820297241,0,0,0,-1,-1,16336.74327125,unknown,2,2021-04-05 21:54:29.709 -0400,2021-04-05 19:23:45.401 -0400,796,1.436661,0,0,588.679,0,0,2021-04-05 21:54:32.276 -0400,639366877.42532,0,-2.38,98.19479,1,0.63
2021-04-05 21:54:37.545 -0400,0,0,0,0,0,0,0,0,0,16344.566153375,-0.103424072265625,-0.2444915771484375,-0.956298828125,16344.556082375,-0.07252457774811111,-0.09474055911720512,0.2285525058089357,-0.08786460757255554,-0.015086998231709,0.01782915554940701,-0.02373635023832321,-0.02094496786594391,-0.003105044364929199,XArbitraryZVertical,0.1121193557801346,-0.05114214278556389,-0.04137342307147044,0.9915150518628669,-0.09213888645172119,-0.2265679091215134,-0.9696274399757385,0,0,0,-1,-1,16336.74327125,unknown,2,2021-04-05 21:54:29.709 -0400,2021-04-05 19:23:45.401 -0400,796,1.436661,0,0,588.679,0,0,2021-04-05 21:54:32.276 -0400,639366877.42532,0,-2.38,98.19479,1,0.63
2021-04-05 21:54:37.576 -0400,0,0,0,0,0,0,0,0,0,16344.601321375,-0.0777130126953125,-0.233612060546875,-0.9416961669921875,16344.586264375,-0.07268481086969544,-0.09731220816098916,0.2273459696635799,-0.03956984728574753,-0.1036965996026993,-0.01115951966494322,0.003487348556518555,-0.01494865119457245,0.01622849702835083,XArbitraryZVertical,0.1114635038645936,-0.05240758154937128,-0.04157034930470941,0.9915145894872409,-0.09465861320495605,-0.2253925800323486,-0.9696586728096008,0,0,0,-1,-1,16336.74327125,unknown,2,2021-04-05 21:54:29.709 -0400,2021-04-05 19:23:45.401 -0400,796,1.436661,0,0,588.679,0,0,2021-04-05 21:54:32.276 -0400,639366877.42532,0,-2.38,98.19479,1,0.63
2021-04-05 21:54:37.616 -0400,0,0,0,0,0,0,0,0,0,16344.636527375,-0.0861358642578125,-0.20892333984375,-0.9600677490234375,16344.616416375,-0.07301117664187395,-0.1031066468532234,0.2272739623047271,0.003482937347143888,-0.2518706023693085,-0.008255725726485252,0.02183185517787933,-0.0007518380880355835,0.03272396326065063,XArbitraryZVertical,0.1112978629821977,-0.05529706504344907,-0.04205318514664834,0.9913559303998631,-0.1002772897481918,-0.225322425365448,-0.9691100120544434,0,0,0,-1,-1,16336.74327125,unknown,2,2021-04-05 21:54:29.709 -0400,2021-04-05 19:23:45.401 -0400,796,1.436661,0,0,588.679,0,0,2021-04-05 21:54:32.276 -0400,639366877.42532,0,-2.38,98.19479,1,0.63
2021-04-05 21:54:37.646 -0400,0,0,0,0,0,0,0,0,0,16344.671725375,-0.091217041015625,-0.2016754150390625,-1.035140991210938,16344.646598375,-0.07371128499760529,-0.112437113445908,0.2279849139197047,-0.02653433755040169,-0.3301730751991272,-0.0423252284526825,0.02143693715333939,0.01646603643894196,-0.004347741603851318,XArbitraryZVertical,0.111431952056245,-0.05997097176020699,-0.04293723769170543,0.9910311207442248,-0.1092970371246338,-0.2260150462388992,-0.9679728150367737,0,0,0,-1,-1,16336.74327125,unknown,2,2021-04-05 21:54:29.709 -0400,2021-04-05 19:23:45.401 -0400,796,1.436661,0,0,588.679,0,0,2021-04-05 21:54:32.276 -0400,639366877.42532,0,-2.38,98.19479,1,0.63
2021-04-05 21:54:37.686 -0400,0,0,0,0,0,0,0,0,0,16344.706931375,-0.087982177734375,-0.194854736328125,-1.046493530273438,16344.676779375,-0.07570108413504834,-0.1205414065466118,0.2269853971919893,-0.06893441081047058,-0.2613408863544464,-0.05521309748291969,0.0259481742978096,0.02336579561233521,-0.06786191463470459,XArbitraryZVertical,0.1106979243356451,-0.06408158309938342,-0.04434637886057546,0.9907941075457026,-0.117165207862854,-0.2250412702560425,-0.9672790169715881,0,0,0,-1,-1,16336.74327125,unknown,2,2021-04-05 21:54:29.709 -0400,2021-04-05 19:23:45.401 -0400,796,1.436661,0,0,588.679,0,0,2021-04-05 21:54:32.276 -0400,639366877.42532,0,-2.38,98.19479,1,0.63
2021-04-05 21:54:37.748 -0400,0,0,0,0,0,0,0,0,0,16344.742129375,-0.092437744140625,-0.1984710693359375,-0.9826202392578125,16344.706931375,-0.07694166096386156,-0.1250154840181197,0.2270248901250705,0.07714337110519409,-0.1306740194559097,0.01415653899312019,0.02996837347745895,0.03138463199138641,-0.08448737859725952,XArbitraryZVertical,0.1105768646873727,-0.06636706567176696,-0.04520951817348289,0.9906181951010865,-0.121490590274334,-0.2250797599554062,-0.9667363166809082,0,0,0,-1,-1,16336.74327125,unknown,2,2021-04-05 21:54:29.709 -0400,2021-04-05 19:23:45.401 -0400,796,1.436661,0,0,588.679,0,0,2021-04-05 21:54:32.276 -0400,639366877.42532,0,-2.38,98.19479,1,0.63
2021-04-05 21:54:37.792 -0400,0,0,0,0,0,0,0,0,0,16344.777335375,-0.107513427734375,-0.1981658935546875,-1.07427978515625,16344.767264375,-0.07130162028925109,-0.1300350936370336,0.2328588657910961,0.05626343935728073,-0.07769174873828888,0.1409475803375244,0.02321821451187134,0.0445876270532608,-0.06141871213912964,XArbitraryZVertical,0.1135473260758719,-0.06862267270854981,-0.04286989150898739,0.9902323742576907,-0.1261692643165588,-0.2307601720094681,-0.9647958874702454,0,0,0,-1,-1,16336.74327125,unknown,2,2021-04-05 21:54:29.709 -0400,2021-04-05 19:23:45.401 -0400,796,1.436661,0,0,588.679,0,0,2021-04-05 21:54:32.276 -0400,639366877.42532,0,-2.38,98.19479,1,0.63
2021-04-05 21:54:37.801 -0400,0,0,0,0,0,0,0,0,0,16344.812533375,-0.12493896484375,-0.2212371826171875,-0.9934234619140625,16344.797446375,-0.06470828165184193,-0.1301876340375926,0.2347724112500946,0.2581074237823486,0.08585768193006516,0.263406902551651,0.01543430984020233,0.02008193731307983,-0.1010926365852356,XArbitraryZVertical,0.1147178830077944,-0.06834692704162994,-0.03967205034000975,0.990249796908642,-0.1262588798999786,-0.2326216399669647,-0.9643369913101196,0,0,0,-1,-1,16336.74327125,unknown,2,2021-04-05 21:54:29.709 -0400,2021-04-05 19:23:45.401 -0400,796,1.436661,0,0,588.679,0,0,2021-04-05 21:54:32.276 -0400,639366877.42532,0,-2.38,98.19479,1,0.63
2021-04-05 21:54:37.827 -0400,0,0,0,0,0,0,0,0,0,16344.847739375,-0.14935302734375,-0.238311767578125,-0.911712646484375,16344.827628375,-0.05472091139080146,-0.1270129265171073,0.2420068183076244,0.3341798186302185,0.2062778025865555,0.2992181181907654,-0.01189206540584564,0.0213896781206131,0.005564689636230469,XArbitraryZVertical,0.1186964400761959,-0.06627172783369305,-0.03476000595825527,0.9901065012474821,-0.1229803562164307,-0.2396514415740967,-0.963038444519043,0,0,0,-1,-1,16336.74327125,unknown,2,2021-04-05 21:54:29.709 -0400,2021-04-05 19:23:45.401 -0400,796,1.436661,0,0,588.679,0,0,2021-04-05 21:54:32.276 -0400,639366877.42532,0,-2.38,98.19479,1,0.63
2021-04-05 21:54:37.857 -0400,0,0,0,0,0,0,0,0,0,16344.882906375,-0.149505615234375,-0.2436065673828125,-0.88861083984375,16344.857779375,-0.04551807589704854,-0.1209345937231659,0.2463181191630693,0.1432491689920425,0.2819010615348816,0.2376501262187958,-0.03288836032152176,0.003753036260604858,0.05504924058914185,XArbitraryZVertical,0.1212268694505952,-0.06274774400117962,-0.02996525875690477,0.9901862789209699,-0.1169987246394157,-0.2438348680734634,-0.9627335071563721,0,0,0,-1,-1,16336.74327125,unknown,2,2021-04-05 21:54:29.709 -0400,2021-04-05 19:23:45.401 -0400,796,1.436661,0,0,588.679,0,0,2021-04-05 21:54:32.276 -0400,639366877.42532,0,-2.38,98.19479,1,0.63
2021-04-05 21:54:37.897 -0400,0,0,0,0,0,0,0,0,0,16344.918112375,-0.1259918212890625,-0.2211456298828125,-0.8984222412109375,16344.887961375,-0.03921865243623396,-0.112301974691234,0.2468548830919746,0.03558832034468651,0.3407025337219238,0.1524599194526672,-0.04083674401044846,0.0007487684488296509,0.07496660947799683,XArbitraryZVertical,0.1218045669728072,-0.05809406502071444,-0.02633626311079475,0.9905024197489636,-0.1086688712239265,-0.2443553954362869,-0.9635774493217468,0,0,0,-1,-1,16336.74327125,unknown,2,2021-04-05 21:54:29.709 -0400,2021-04-05 19:23:45.401 -0400,796,1.436661,0,0,588.679,0,0,2021-04-05 21:54:32.276 -0400,639366877.42532,0,-2.38,98.19479,1,0.63
2021-04-05 21:54:37.929 -0400,0,0,0,0,0,0,0,0,0,16344.953310375,-0.11865234375,-0.2176666259765625,-0.90911865234375,16344.948294375,-0.03161497111889732,-0.1022302237283076,0.2432005124436679,-0.07417821139097214,0.1984731703996658,0.1632120311260223,-0.01775695383548737,0.02666828036308289,0.04799395799636841,XArbitraryZVertical,0.1203255847658862,-0.05262411677295586,-0.02186644396788472,0.991097524402599,-0.09904907643795013,-0.2408101856708527,-0.9655048847198486,0,0,0,-1,-1,16336.74327125,unknown,2,2021-04-05 21:54:29.709 -0400,2021-04-05 19:23:45.401 -0400,796,1.436661,0,0,588.679,0,0,2021-04-05 21:54:32.276 -0400,639366877.42532,0,-2.38,98.19479,1,0.63
2021-04-05 21:54:37.967 -0400,0,0,0,0,0,0,0,0,0,16344.988517375,-0.1314544677734375,-0.2216949462890625,-0.9001617431640625,16344.978476375,-0.02570992804908986,-0.09944296552520947,0.240574741220491,-0.1276559680700302,0.1921585649251938,0.1908533573150635,-0.0329439789056778,0.02274565398693085,0.07686150074005127,XArbitraryZVertical,0.1192050303497225,-0.05087840486983394,-0.01870945560458143,0.9913887018945947,-0.09642002731561661,-0.2382608503103256,-0.9664031267166138,0,0,0,-1,-1,16336.74327125,unknown,2,2021-04-05 21:54:29.709 -0400,2021-04-05 19:23:45.401 -0400,796,1.436661,0,0,588.679,0,0,2021-04-05 21:54:32.276 -0400,639366877.42532,0,-2.38,98.19479,1,0.63
2021-04-05 21:54:37.999 -0400,0,0,0,0,0,0,0,0,0,16345.023714375,-0.1303558349609375,-0.246551513671875,-0.9273223876953125,16345.008628375,-0.02010724384722616,-0.09541113704268374,0.2348928746257127,-0.1990588307380676,0.1660502403974533,0.2043331414461136,-0.03999429196119308,-0.0001256316900253296,0.05130690336227417,XArbitraryZVertical,0.1165612825637727,-0.04853326106582995,-0.0155604132772934,0.9918748444085568,-0.09265036135911942,-0.2327388077974319,-0.9681159853935242,0,0,0,-1,-1,16336.74327125,unknown,2,2021-04-05 21:54:29.709 -0400,2021-04-05 19:23:45.401 -0400,796,1.436661,0,0,588.679,0,0,2021-04-05 21:54:32.276 -0400,639366877.42532,0,-2.38,98.19479,1,0.63
2021-04-05 21:54:38.038 -0400,0,0,0,0,0,0,0,0,0,16345.058921375,-0.133880615234375,-0.2606353759765625,-0.9352874755859375,16345.038809375,-0.01492926705570969,-0.09246483185398452,0.2284283304858639,-0.2032023668289185,0.1262673586606979,0.1495207846164703,-0.04090947657823563,-0.03354759514331818,0.03884762525558472,XArbitraryZVertical,0.1134983225864699,-0.04676335123636695,-0.01267490528460728,0.9923561581249899,-0.08993463963270187,-0.2264469563961029,-0.9698626399040222,0,0,0,-1,-1,16336.74327125,unknown,2,2021-04-05 21:54:29.709 -0400,2021-04-05 19:23:45.401 -0400,796,1.436661,0,0,588.679,0,0,2021-04-05 21:54:32.276 -0400,639366877.42532,0,-2.38,98.19479,1,0.63
2021-04-05 21:54:38.068 -0400,0,0,0,0,0,0,0,0,0,16345.094118375,-0.12078857421875,-0.227142333984375,-0.993316650390625,16345.068991375,-0.01281872673556636,-0.09172184582418003,0.2213683309486744,-0.3016945123672485,0.04443979635834694,0.009402031078934669,-0.04307279735803604,-0.03566904366016388,0.0308537483215332,XArbitraryZVertical,0.1100478704745753,-0.04627059810587973,-0.01142724318700095,0.9927828560049912,-0.08935822546482086,-0.2195647656917572,-0.9714969992637634,0,0,0,-1,-1,16336.74327125,unknown,2,2021-04-05 21:54:29.709 -0400,2021-04-05 19:23:45.401 -0400,796,1.436661,0,0,588.679,0,0,2021-04-05 21:54:32.276 -0400,639366877.42532,0,-2.38,98.19479,1,0.63
2021-04-05 21:54:38.108 -0400,0,0,0,0,0,0,0,0,0,16345.129325375,-0.084136962890625,-0.2176513671875,-1.026885986328125,16345.099143375,-0.01410752089800661,-0.09215737175599306,0.2124006727565727,-0.3233759999275208,0.01699714735150337,-0.04193998873233795,-0.03082965314388275,-0.01633515954017639,-0.01993709802627563,XArbitraryZVertical,0.1055625868898808,-0.04654863095152688,-0.01188904453513523,0.9932514811706926,-0.08995891362428665,-0.2108072340488434,-0.9733795523643494,0,0,0,-1,-1,16336.74327125,unknown,2,2021-04-05 21:54:29.709 -0400,2021-04-05 19:23:45.401 -0400,796,1.436661,0,0,588.679,0,0,2021-04-05 21:54:32.276 -0400,639366877.42532,0,-2.38,98.19479,1,0.63
2021-04-05 21:54:38.139 -0400,0,0,0,0,0,0,0,0,0,16345.164492375,-0.0561981201171875,-0.1953887939453125,-1.012466430664062,16345.129325375,-0.01610997037045061,-0.09262279158005988,0.2064244217763687,-0.2088389694690704,0.02617757581174374,-0.0516117550432682,0.0007746517658233643,-0.01752692461013794,-0.05055660009384155,XArbitraryZVertical,0.1025443411495183,-0.04687598407476507,-0.01277300225867413,0.9935411955367555,-0.09052684158086777,-0.2049615532159805,-0.9745746254920959,0,0,0,-1,-1,16336.74327125,unknown,2,2021-04-05 21:54:29.709 -0400,2021-04-05 19:23:45.401 -0400,796,1.436661,0,0,588.679,0,0,2021-04-05 21:54:32.276 -0400,639366877.42532,0,-2.38,98.19479,1,0.63
2021-04-05 21:54:38.179 -0400,0,0,0,0,0,0,0,0,0,16345.199729375,-0.058685302734375,-0.1845550537109375,-1.044158935546875,16345.189658375,-0.01779486891904141,-0.09376701374932965,0.2014649019855594,-0.07541632652282715,-0.03128747642040253,0.004881331697106361,0.03979505598545074,0.008317053318023682,-0.05687814950942993,XArbitraryZVertical,0.1000328334897345,-0.04752066189244349,-0.01355528155673253,0.9937562485842703,-0.09173596650362015,-0.2001048177480698,-0.9754704236984253,0,0,0,-1,-1,16336.74327125,unknown,2,2021-04-05 21:54:29.709 -0400,2021-04-05 19:23:45.401 -0400,796,1.436661,0,0,588.679,0,0,2021-04-05 21:54:32.276 -0400,639366877.42532,0,-2.38,98.19479,1,0.63
2021-04-05 21:54:38.248 -0400,0,0,0,0,0,0,0,0,0,16345.234896375,-0.072418212890625,-0.17755126953125,-1.011886596679688,16345.219840375,-0.01676923093966997,-0.09412752031056776,0.2008395735435483,0.04398582130670547,0.0149944294244051,0.07802160084247589,0.03071326017379761,0.01995714008808136,-0.06748330593109131,XArbitraryZVertical,0.09974409442899849,-0.04764735614532292,-0.01304932595856866,0.9937859881368274,-0.09209936112165451,-0.1994920969009399,-0.9755616784095764,0,0,0,-1,-1,16336.74327125,unknown,2,2021-04-05 21:54:29.709 -0400,2021-04-05 19:23:45.401 -0400,796,1.436661,0,0,588.679,0,0,2021-04-05 21:54:32.276 -0400,639366877.42532,0,-2.38,98.19479,1,0.63
2021-04-05 21:54:38.291 -0400,0,0,0,0,0,0,0,0,0,16345.270102375,-0.103851318359375,-0.177398681640625,-0.9775238037109375,16345.249991375,-0.01334437774476657,-0.09264659452999818,0.2041958031659205,0.1778216063976288,0.05923191457986832,0.1236601248383522,0.008469276130199432,0.02551831305027008,-0.01641494035720825,XArbitraryZVertical,0.101501662670678,-0.04674386598700113,-0.0113497803450893,0.993671758118805,-0.09059207886457443,-0.2027797400951385,-0.9750248193740845,0,0,0,-1,-1,16336.74327125,unknown,2,2021-04-05 21:54:29.709 -0400,2021-04-05 19:23:45.401 -0400,796,1.436661,0,0,588.679,0,0,2021-04-05 21:54:32.276 -0400,639366877.42532,0,-2.38,98.19479,1,0.63
2021-04-05 21:54:38.296 -0400,0,0,0,0,0,0,0,0,0,16345.305300375,-0.092864990234375,-0.2001495361328125,-0.9900360107421875,16345.280173375,-0.01004491071299726,-0.09073874707709238,0.2075557940191302,0.1059970483183861,0.02746021561324596,0.0730847492814064,-0.01438837498426437,0.0254809558391571,-0.008291423320770264,XArbitraryZVertical,0.103257252835476,-0.04562898004501596,-0.009688492235424057,0.9935603207453857,-0.08866947144269943,-0.2060687690973282,-0.9745118618011475,0,0,0,-1,-1,16336.74327125,unknown,2,2021-04-05 21:54:29.709 -0400,2021-04-05 19:23:45.401 -0400,796,1.436661,0,0,588.679,0,0,2021-04-05 21:54:32.276 -0400,639366877.42532,0,-2.38,98.19479,1,0.63
2021-04-05 21:54:38.321 -0400,0,0,0,0,0,0,0,0,0,16345.340506375,-0.08001708984375,-0.2040557861328125,-0.91412353515625,16345.310355375,-0.008492816930732817,-0.08939834298829197,0.2097843602557129,0.1225336566567421,0.03182798624038696,0.03080457448959351,-0.005543053150177002,0.008099406957626343,-0.0158659815788269,XArbitraryZVertical,0.1044057075532678,-0.04488244566271283,-0.008897237417586504,0.9934817644375713,-0.087321937084198,-0.2082489877939224,-0.9741700291633606,0,0,0,-1,-1,16336.74327125,unknown,2,2021-04-05 21:54:29.709 -0400,2021-04-05 19:23:45.401 -0400,796,1.436661,0,0,588.679,0,0,2021-04-05 21:54:32.276 -0400,639366877.42532,0,-2.38,98.19479,1,0.63
2021-04-05 21:54:38.350 -0400,0,0,0,0,0,0,0,0,0,16345.375704375,-0.1011810302734375,-0.2065582275390625,-0.8791961669921875,16345.340506375,-0.007020262603507476,-0.08872295262459792,0.2128478048412793,0.1292010992765427,0.007426484022289515,0.03887708112597466,0.005537092685699463,0.00918734073638916,0.04757863283157349,XArbitraryZVertical,0.1059631750930787,-0.04446824137841198,-0.008197469970892178,0.9933414963268774,-0.08660703897476196,-0.2112442851066589,-0.973588764667511,0,0,0,-1,-1,16336.74327125,unknown,2,2021-04-05 21:54:29.709 -0400,2021-04-05 19:23:45.401 -0400,796,1.436661,0,0,588.679,0,0,2021-04-05 21:54:32.276 -0400,639366877.42532,0,-2.38,98.19479,1,0.63
2021-04-05 21:54:38.390 -0400,0,0,0,0,0,0,0,0,0,16345.410910375,-0.0981292724609375,-0.2293701171875,-0.9525146484375,16345.400840375,-0.006881541581818893,-0.09271055296105543,0.2102097601595899,-0.1798192858695984,-0.1193565130233765,-0.06551589071750641,-0.01044276356697083,-0.02097979187965393,0.05906856060028076,XArbitraryZVertical,0.1046395884035483,-0.04644327306071454,-0.008279529907206906,0.9933907109847968,-0.09053990244865417,-0.2086650431156158,-0.9737871289253235,0,0,0,-1,-1,16336.74327125,unknown,2,2021-04-05 21:54:29.709 -0400,2021-04-05 19:23:45.401 -0400,796,1.436661,0,0,588.679,0,0,2021-04-05 21:54:32.276 -0400,639366877.42532,0,-2.38,98.19479,1,0.63
2021-04-05 21:54:38.421 -0400,0,0,0,0,0,0,0,0,0,16345.44611466667,-0.068695068359375,-0.2068634033203125,-1.037872314453125,16345.43102766667,-0.01064037571512659,-0.09655622029128379,0.2046814827060769,-0.1917006522417068,-0.2037534415721893,-0.126266822218895,0.009387142956256866,-0.02147620916366577,-0.02476352453231812,XArbitraryZVertical,0.1017863078892096,-0.04854906174102656,-0.01021637247466877,0.9935683655628377,-0.09439384937286377,-0.203255295753479,-0.9745650887489319,0,0,0,-1,-1,16336.74327125,unknown,2,2021-04-05 21:54:29.709 -0400,2021-04-05 19:23:45.401 -0400,796,1.436661,0,0,588.679,0,0,2021-04-05 21:54:32.276 -0400,639366877.42532,0,-2.38,98.19479,1,0.63
2021-04-05 21:54:38.461 -0400,0,0,0,0,0,0,0,0,0,16345.48132066667,-0.0648651123046875,-0.186279296875,-1.001556396484375,16345.46120966667,-0.01382699305298545,-0.1030371146152406,0.2016002746204571,-0.06903057545423508,-0.244068905711174,-0.02813963405787945,0.03810396790504456,0.006847500801086426,-0.07212543487548828,XArbitraryZVertical,0.1001394091177312,-0.05192792843652198,-0.01205109492586263,0.9935442817962847,-0.1007718145847321,-0.2002374529838562,-0.9745512008666992,0,0,0,-1,-1,16336.74327125,unknown,2,2021-04-05 21:54:29.709 -0400,2021-04-05 19:23:45.401 -0400,796,1.436661,0,0,588.679,0,0,2021-04-05 21:54:32.276 -0400,639366877.42532,0,-2.38,98.19479,1,0.63
2021-04-05 21:54:38.492 -0400,0,0,0,0,0,0,0,0,0,16345.51648866667,-0.085174560546875,-0.1907196044921875,-0.9269561767578125,16345.49136166667,-0.01199028390253252,-0.1095736488857404,0.2034496471775179,0.09078119695186615,-0.1550790667533875,0.1102574393153191,0.03996045142412186,0.01651734113693237,-0.01374173164367676,XArbitraryZVertical,0.1010686893232034,-0.05508324647083124,-0.01151585513531103,0.9932866740273155,-0.1070991232991219,-0.2020490318536758,-0.9735019207000732,0,0,0,-1,-1,16336.74327125,unknown,2,2021-04-05 21:54:29.709 -0400,2021-04-05 19:23:45.401 -0400,796,1.436661,0,0,588.679,0,0,2021-04-05 21:54:32.276 -0400,639366877.42532,0,-2.38,98.19479,1,0.63
2021-04-05 21:54:38.532 -0400,0,0,0,0,0,0,0,0,0,16345.55172466667,-0.10052490234375,-0.212249755859375,-0.9946746826171875,16345.52154366667,-0.00826259309298554,-0.1136473847902602,0.2048870519919267,-0.047738928347826,-0.1303650438785553,0.1172640472650528,0.02585640549659729,0.01273691654205322,0.04581183195114136,XArbitraryZVertical,0.1018651084571632,-0.05691668555056241,-0.009910859232806249,0.9931191954046537,-0.1110309660434723,-0.2034565806388855,-0.9727680087089539,0,0,0,-1,-1,16336.74327125,unknown,2,2021-04-05 21:54:29.709 -0400,2021-04-05 19:23:45.401 -0400,796,1.436661,0,0,588.679,0,0,2021-04-05 21:54:32.276 -0400,639366877.42532,0,-2.38,98.19479,1,0.63
2021-04-05 21:54:38.562 -0400,0,0,0,0,0,0,0,0,0,16345.58689266667,-0.1121978759765625,-0.1821746826171875,-1.076217651367188,16345.55172466667,-0.00647456431014903,-0.1176517262562192,0.1999720889260042,-0.1970980614423752,-0.2265048921108246,0.03889334574341774,0.01645432412624359,-0.01197513937950134,-0.002639949321746826,XArbitraryZVertical,0.09945697938766045,-0.05882059115886051,-0.009084091357935331,0.9932601712604816,-0.1150413453578949,-0.1986419707536697,-0.9732968807220459,0,0,0,-1,-1,16336.74327125,unknown,2,2021-04-05 21:54:29.709 -0400,2021-04-05 19:23:45.401 -0400,796,1.436661,0,0,588.679,0,0,2021-04-05 21:54:32.276 -0400,639366877.42532,0,-2.38,98.19479,1,0.63
2021-04-05 21:54:38.602 -0400,0,0,0,0,0,0,0,0,0,16345.62209866667,-0.14202880859375,-0.1746673583984375,-1.021835327148438,16345.61205866667,-0.006264406023027658,-0.1267741285126699,0.1940589011578407,0.02781029231846333,-0.04839368164539337,0.06234107539057732,-0.001213066279888153,0.01912181079387665,-0.08627617359161377,XArbitraryZVertical,0.09648476839750307,-0.06334919580984996,-0.00924782941611162,0.9932733660292731,-0.1240615919232368,-0.1928431838750839,-0.9733551144599915,0,0,0,-1,-1,16336.74327125,unknown,2,2021-04-05 21:54:29.709 -0400,2021-04-05 19:23:45.401 -0400,796,1.436661,0,0,588.679,0,0,2021-04-05 21:54:32.276 -0400,639366877.42532,0,-2.38,98.19479,1,0.63
2021-04-05 21:54:38.632 -0400,0,0,0,0,0,0,0,0,0,16345.65729666667,-0.14569091796875,-0.1862030029296875,-0.967041015625,16345.64220966667,-0.004315378727715024,-0.1247450951387082,0.1953338201712272,0.02182800136506557,0.126260831952095,0.04739180579781532,-0.02671751379966736,0.01323153078556061,-0.01222032308578491,XArbitraryZVertical,0.09718801375311321,-0.06224490537628108,-0.00822132519762276,0.9932837342142102,-0.122055672109127,-0.1940940171480179,-0.9733601212501526,0,0,0,-1,-1,16336.74327125,unknown,2,2021-04-05 21:54:29.709 -0400,2021-04-05 19:23:45.401 -0400,796,1.436661,0,0,588.679,0,0,2021-04-05 21:54:32.276 -0400,639366877.42532,0,-2.38,98.19479,1,0.63
2021-04-05 21:54:38.672 -0400,0,0,0,0,0,0,0,0,0,16345.69250266667,-0.1211700439453125,-0.1900177001953125,-0.964447021484375,16345.67239166667,-0.003876947906284369,-0.1196373107720873,0.1945231846922167,-0.02756769955158234,0.1607643514871597,-0.002743048360571265,-0.02083832025527954,0.006317466497421265,0.005254685878753662,XArbitraryZVertical,0.09681910344691198,-0.05968823221780571,-0.00773127385903115,0.9934806015507286,-0.1171011328697205,-0.193298727273941,-0.9741267561912537,0,0,0,-1,-1,16336.74327125,unknown,2,2021-04-05 21:54:29.709 -0400,2021-04-05 19:23:45.401 -0400,796,1.436661,0,0,588.679,0,0,2021-04-05 21:54:32.276 -0400,639366877.42532,0,-2.38,98.19479,1,0.63
2021-04-05 21:54:38.702 -0400,0,0,0,0,0,0,0,0,0,16345.72770066667,-0.122802734375,-0.1840057373046875,-0.9303741455078125,16345.70257366667,-0.004248677464981721,-0.1146803854404819,0.1930608911845418,0.003146313596516848,0.1423644721508026,-0.01103326864540577,-0.006806842982769012,0.0005643218755722046,0.01534974575042725,XArbitraryZVertical,0.09610080165320327,-0.05724625511599958,-0.007634413201085107,0.9936947832810861,-0.112303264439106,-0.1918638199567795,-0.9749749898910522,0,0,0,-1,-1,16336.74327125,unknown,2,2021-04-05 21:54:29.709 -0400,2021-04-05 19:23:45.401 -0400,796,1.436661,0,0,588.679,0,0,2021-04-05 21:54:32.276 -0400,639366877.42532,0,-2.38,98.19479,1,0.63
2021-04-05 21:54:38.787 -0400,0,0,0,0,0,0,0,0,0,16345.76290666667,-0.113555908203125,-0.1750946044921875,-0.9620208740234375,16345.73272466667,-0.004426398034883267,-0.1125297085251574,0.1927933713753247,-0.01436034217476845,0.06290072202682495,-0.01306091621518135,-0.01259081810712814,0.007595464587211609,0.0448911190032959,XArbitraryZVertical,0.09597103948134149,-0.05618663728446817,-0.007611915684748498,0.9937679233458434,-0.1102119088172913,-0.1916012614965439,-0.9752652645111084,0,0,0,-1,-1,16336.74327125,unknown,2,2021-04-05 21:54:29.709 -0400,2021-04-05 19:23:45.401 -0400,796,1.436661,0,0,588.679,0,0,2021-04-05 21:54:32.276 -0400,639366877.42532,0,-2.38,98.19479,1,0.63
2021-04-05 21:54:38.792 -0400,0,0,0,0,0,0,0,0,0,16345.79810466667,-0.116302490234375,-0.1735382080078125,-0.977935791015625,16345.76290666667,-0.004210191948315772,-0.1128488045426399,0.1918122135773907,-0.03053743578493595,-0.0188182108104229,0.04081394895911217,-0.004980072379112244,0.01333099603652954,0.01908701658248901,XArbitraryZVertical,0.09548837140363964,-0.05633644345558791,-0.007492359563976,0.9938068726131467,-0.1105442196130753,-0.1906381845474243,-0.975416362285614,0,0,0,-1,-1,16336.74327125,unknown,2,2021-04-05 21:54:29.709 -0400,2021-04-05 19:23:45.401 -0400,796,1.436661,0,0,588.679,0,0,2021-04-05 21:54:32.276 -0400,639366877.42532,0,-2.38,98.19479,1,0.63
2021-04-05 21:54:38.813 -0400,0,0,0,0,0,0,0,0,0,16345.83331066667,-0.1273040771484375,-0.17962646484375,-0.975738525390625,16345.82323966667,0.004734815565483421,-0.1162472156809652,0.1924985670118409,0.0150909349322319,-0.009586300700902939,0.203428640961647,-0.006838515400886536,0.01394370198249817,-0.002161145210266113,XArbitraryZVertical,0.096075084284239,-0.0575947353663461,-0.003230093696213424,0.993701098171364,-0.1138432398438454,-0.1913119107484818,-0.9749048352241516,0,0,0,-1,-1,16336.74327125,unknown,2,2021-04-05 21:54:29.709 -0400,2021-04-05 19:23:45.401 -0400,796,1.436661,0,0,588.679,0,0,2021-04-05 21:54:32.276 -0400,639366877.42532,0,-2.38,98.19479,1,0.63
2021-04-05 21:54:38.843 -0400,0,0,0,0,0,0,0,0,0,16345.86847766667,-0.1482391357421875,-0.1843414306640625,-0.9913787841796875,16345.85342166667,0.01122638157075987,-0.1181406315374673,0.1917021944771769,0.01498035900294781,-0.03132308274507523,0.2149741351604462,-0.02159172296524048,0.008904755115509033,0.001358330249786377,XArbitraryZVertical,0.09586582364893395,-0.05822778939733603,-7.226208858077164e-05,0.9936897226438366,-0.1157068535685539,-0.1905301809310913,-0.9748385548591614,0,0,0,-1,-1,16336.74327125,unknown,2,2021-04-05 21:54:29.709 -0400,2021-04-05 19:23:45.401 -0400,796,1.436661,0,0,588.679,0,0,2021-04-05 21:54:32.276 -0400,639366877.42532,0,-2.38,98.19479,1,0.63
2021-04-05 21:54:38.883 -0400,0,0,0,0,0,0,0,0,0,16345.90371466667,-0.1546478271484375,-0.1963653564453125,-0.98992919921875,16345.88357366667,0.01750740223943938,-0.1202597280941311,0.1912279345907822,0.03787104040384293,-0.0009503657929599285,0.2040079534053802,-0.03634582459926605,0.005524724721908569,-0.02922546863555908,XArbitraryZVertical,0.09581579123496566,-0.05898268203639759,0.002961039157945864,0.9936456552057847,-0.1177832037210464,-0.1900645941495895,-0.9746807813644409,0,0,0,-1,-1,16336.74327125,unknown,2,2021-04-05 21:54:29.709 -0400,2021-04-05 19:23:45.401 -0400,796,1.436661,0,0,588.679,0,0,2021-04-05 21:54:32.276 -0400,639366877.42532,0,-2.38,98.19479,1,0.63
2021-04-05 21:54:38.914 -0400,0,0,0,0,0,0,0,0,0,16345.93888266667,-0.1464080810546875,-0.19915771484375,-0.8929443359375,16345.91375466667,0.02391844390574362,-0.1188017643290179,0.1919596461730027,0.08125626295804977,0.1986757069826126,0.1940636783838272,-0.04016388952732086,-0.006635367870330811,-0.0007202625274658203,XArbitraryZVertical,0.09636334900218982,-0.05794446124245126,0.006194117831698944,0.9936388864705687,-0.1163455098867416,-0.190782904624939,-0.9747130870819092,0,0,0,-1,-1,16336.74327125,unknown,2,2021-04-05 21:54:29.709 -0400,2021-04-05 19:23:45.401 -0400,796,1.436661,0,0,588.679,0,0,2021-04-05 21:54:32.276 -0400,639366877.42532,0,-2.38,98.19479,1,0.63
2021-04-05 21:54:38.954 -0400,0,0,0,0,0,0,0,0,0,16345.97408866667,-0.1125335693359375,-0.1994171142578125,-0.91473388671875,16345.94393666667,0.0291816023375916,-0.1132380176011411,0.1929424335530616,0.02426966279745102,0.2271791994571686,0.1220115274190903,-0.03550864011049271,-0.007410213351249695,0.08221423625946045,XArbitraryZVertical,0.09697887279870478,-0.0549165374451064,0.009049028498664735,0.9937290077652333,-0.1108994409441948,-0.1917475610971451,-0.9751585721969604,0,0,0,-1,-1,16336.74327125,unknown,2,2021-04-05 21:54:29.709 -0400,2021-04-05 19:23:45.401 -0400,796,1.436661,0,0,588.679,0,0,2021-04-05 21:54:32.276 -0400,639366877.42532,0,-2.38,98.19479,1,0.63
2021-04-05 21:54:38.985 -0400,0,0,0,0,0,0,0,0,0,16346.00928666667,-0.08477783203125,-0.1815643310546875,-0.9960174560546875,16345.97408866667,0.03132047968356377,-0.1104886051593984,0.1913443736838991,-0.088440902531147,0.06221848353743553,0.01832615211606026,-0.007989890873432159,-0.008170127868652344,0.07325154542922974,XArbitraryZVertical,0.09622958079125038,-0.05346333474888439,0.01029025293755189,0.9938690653432924,-0.1082515642046928,-0.1901789009571075,-0.9757630825042725,0,0,0,-1,-1,16336.74327125,unknown,2,2021-04-05 21:54:29.709 -0400,2021-04-05 19:23:45.401 -0400,796,1.436661,0,0,588.679,0,0,2021-04-05 21:54:32.276 -0400,639366877.42532,0,-2.38,98.19479,1,0.63
2021-04-05 21:54:39.024 -0400,0,0,0,0,0,0,0,0,0,16346.04449266667,-0.0961761474609375,-0.1425933837890625,-1.069366455078125,16346.03445166667,0.03034182807856564,-0.1140672506457529,0.1852026738637096,-0.1681855320930481,-0.03589902818202972,0.004929385613650084,0.02170942723751068,0.02844500541687012,-0.05675268173217773,XArbitraryZVertical,0.09316911229422596,-0.05535144449216162,0.009810394910484596,0.9940621936491409,-0.1118736118078232,-0.1841457486152649,-0.9765114784240723,0,0,0,-1,-1,16336.74327125,unknown,2,2021-04-05 21:54:29.709 -0400,2021-04-05 19:23:45.401 -0400,796,1.436661,0,0,588.679,0,0,2021-04-05 21:54:32.276 -0400,639366877.42532,0,-2.38,98.19479,1,0.63
2021-04-05 21:54:39.055 -0400,0,0,0,0,0,0,0,0,0,16346.07969066667,-0.1040802001953125,-0.1694183349609375,-1.104629516601562,16346.06460366667,0.03101796894573669,-0.115165656975831,0.180354086615773,-0.178646981716156,0.02361880987882614,0.08228425681591034,0.008692555129528046,0.03899700939655304,-0.1200876235961914,XArbitraryZVertical,0.09078369428895958,-0.05591598673935978,0.01023762377279031,0.9942469468949903,-0.1130474135279655,-0.1793779283761978,-0.9772634506225586,0,0,0,-1,-1,16336.74327125,unknown,2,2021-04-05 21:54:29.709 -0400,2021-04-05 19:23:45.401 -0400,796,1.436661,0,0,588.679,0,0,2021-04-05 21:54:32.276 -0400,639366877.42532,0,-2.38,98.19479,1,0.63
2021-04-05 21:54:39.095 -0400,0,0,0,0,0,0,0,0,0,16346.11489666667,-0.11187744140625,-0.1900634765625,-1.015945434570312,16346.09478566667,0.0343459669219284,-0.1124617395814138,0.1776386687555083,0.01743564940989017,0.1456647664308548,0.1479100286960602,0.007828213274478912,-0.003225788474082947,-0.1087765097618103,XArbitraryZVertical,0.08951063668689226,-0.05445064615570371,0.01209295412713639,0.9944227889049425,-0.1104588210582733,-0.1767058968544006,-0.9780459403991699,0,0,0,-1,-1,16336.74327125,unknown,2,2021-04-05 21:54:29.709 -0400,2021-04-05 19:23:45.401 -0400,796,1.436661,0,0,588.679,0,0,2021-04-05 21:54:32.276 -0400,639366877.42532,0,-2.38,98.19479,1,0.63
2021-04-05 21:54:39.125 -0400,0,0,0,0,0,0,0,0,0,16346.15006366667,-0.1156768798828125,-0.199920654296875,-0.9533843994140625,16346.12493666667,0.03878059972537288,-0.1070674455022027,0.1786477340314153,0.09615948051214218,0.1896221935749054,0.1113981753587723,-0.007966399192810059,-0.01613347232341766,-0.02463251352310181,XArbitraryZVertical,0.09009392812046103,-0.05155768594948015,0.01451181502946028,0.9944920081763657,-0.1051622629165649,-0.1776989847421646,-0.9784497618675232,0,0,0,-1,-1,16336.74327125,unknown,2,2021-04-05 21:54:29.709 -0400,2021-04-05 19:23:45.401 -0400,796,1.436661,0,0,588.679,0,0,2021-04-05 21:54:32.276 -0400,639366877.42532,0,-2.38,98.19479,1,0.63
2021-04-05 21:54:39.166 -0400,0,0,0,0,0,0,0,0,0,16346.18530066667,-0.1182098388671875,-0.1938323974609375,-0.908294677734375,16346.15511866667,0.04140137105440145,-0.1020435102558836,0.1791351204533803,0.06936296075582504,0.1458427011966705,0.04994401335716248,-0.01544042676687241,-0.02174210548400879,0.02549511194229126,XArbitraryZVertical,0.09036372648869737,-0.04893521421125222,0.0160285765288099,0.9945767561985075,-0.1002364605665207,-0.1781785935163498,-0.9788795113563538,0,0,0,-1,-1,16336.74327125,unknown,2,2021-04-05 21:54:29.709 -0400,2021-04-05 19:23:45.401 -0400,796,1.436661,0,0,588.679,0,0,2021-04-05 21:54:32.276 -0400,639366877.42532,0,-2.38,98.19479,1,0.63
2021-04-05 21:54:39.196 -0400,0,0,0,0,0,0,0,0,0,16346.22046766667,-0.11248779296875,-0.1822967529296875,-0.9359588623046875,16346.21545166667,0.04176316848918412,-0.09927450635356772,0.1829516941153803,0.05469676852226257,-0.08019594103097916,-0.05141225084662437,-0.01899763196706772,0.003465935587882996,0.05848658084869385,XArbitraryZVertical,0.09224759371909363,-0.04749364222577571,0.01623572713546092,0.9944702901464173,-0.09745744615793228,-0.1819327920675278,-0.9784694910049438,0,0,0,-1,-1,16336.74327125,unknown,2,2021-04-05 21:54:29.709 -0400,2021-04-05 19:23:45.401 -0400,796,1.436661,0,0,588.679,0,0,2021-04-05 21:54:32.276 -0400,639366877.42532,0,-2.38,98.19479,1,0.63
2021-04-05 21:54:39.288 -0400,0,0,0,0,0,0,0,0,0,16346.25567366667,-0.0968170166015625,-0.16351318359375,-0.9805145263671875,16346.24563366667,0.03963591694523123,-0.1034854646579648,0.1856022446157363,0.06370285898447037,-0.1735189706087112,-0.09784731268882751,-0.002934969961643219,0.01348739862442017,0.01539391279220581,XArbitraryZVertical,0.09354627859913098,-0.0496530736336719,0.01491316957684003,0.9942642315553727,-0.1015266925096512,-0.1845384687185287,-0.9775673151016235,0,0,0,-1,-1,16336.74327125,unknown,2,2021-04-05 21:54:29.709 -0400,2021-04-05 19:23:45.401 -0400,796,1.436661,0,0,588.679,0,0,2021-04-05 21:54:32.276 -0400,639366877.42532,0,-2.38,98.19479,1,0.63
2021-04-05 21:54:39.293 -0400,0,0,0,0,0,0,0,0,0,16346.29087166667,-0.0915985107421875,-0.167572021484375,-0.9941864013671875,16346.27581566667,0.03803341273309332,-0.1095458959473082,0.1894005534472141,0.1361322999000549,-0.1962863653898239,-0.0268980860710144,0.01278263330459595,0.03173023462295532,-0.02175551652908325,XArbitraryZVertical,0.09543627014157519,-0.05269502038847369,0.0137262292003763,0.993945014824989,-0.1073718667030334,-0.1882701963186264,-0.9762303233146667,0,0,0,-1,-1,16336.74327125,unknown,2,2021-04-05 21:54:29.709 -0400,2021-04-05 19:23:45.401 -0400,796,1.436661,0,0,588.679,0,0,2021-04-05 21:54:32.276 -0400,639366877.42532,0,-2.38,98.19479,1,0.63
2021-04-05 21:54:39.307 -0400,0,0,0,0,0,0,0,0,0,16346.32607766667,-0.1033477783203125,-0.1779937744140625,-0.985382080078125,16346.30596666667,0.03920101360178529,-0.1166433726899621,0.194234295004832,0.1602496653795242,-0.2464562058448792,0.05516204610466957,0.02198176831007004,0.02229988574981689,-0.01176917552947998,XArbitraryZVertical,0.09791812577940107,-0.05610561609529649,0.0138228852468326,0.9935155854392562,-0.1141906306147575,-0.1930152922868729,-0.9745283722877502,0,0,0,-1,-1,16336.74327125,unknown,2,2021-04-05 21:54:29.709 -0400,2021-04-05 19:23:45.401 -0400,796,1.436661,0,0,588.679,0,0,2021-04-05 21:54:32.276 -0400,639366877.42532,0,-2.38,98.19479,1,0.63
2021-04-05 21:54:39.337 -0400,0,0,0,0,0,0,0,0,0,16346.36127566667,-0.10736083984375,-0.1915130615234375,-0.98223876953125,16346.33614866667,0.04192425772853975,-0.1259227470352428,0.1978571723870641,0.146412655711174,-0.357855498790741,0.0834449827671051,0.01907502859830856,0.01595042645931244,-0.01546293497085571,XArbitraryZVertical,0.09986233055338736,-0.06053226578307545,0.01460372779865744,0.9930509078192618,-0.1231399700045586,-0.1965687572956085,-0.9727267026901245,0,0,0,-1,-1,16336.74327125,unknown,2,2021-04-05 21:54:29.709 -0400,2021-04-05 19:23:45.401 -0400,796,1.436661,0,0,588.679,0,0,2021-04-05 21:54:32.276 -0400,639366877.42532,0,-2.38,98.19479,1,0.63
2021-04-05 21:54:39.377 -0400,0,0,0,0,0,0,0,0,0,16346.39648266667,-0.1224822998046875,-0.189971923828125,-0.943878173828125,16346.36630066667,0.04497759338658308,-0.1368868149411168,0.2014872418245288,0.2039698958396912,-0.3939043581485748,0.08732940256595612,0.02633830904960632,0.00861358642578125,-0.01163387298583984,XArbitraryZVertical,0.1018425219453541,-0.06576972573001894,0.01544403552211644,0.9925039298189839,-0.1336991488933563,-0.2001267075538635,-0.9706048965454102,0,0,0,-1,-1,16336.74327125,unknown,2,2021-04-05 21:54:29.709 -0400,2021-04-05 19:23:45.401 -0400,796,1.436661,0,0,588.679,0,0,2021-04-05 21:54:32.276 -0400,639366877.42532,0,-2.38,98.19479,1,0.63
2021-04-05 21:54:39.407 -0400,0,0,0,0,0,0,0,0,0,16346.43166254167,-0.158355712890625,-0.2099151611328125,-0.961029052734375,16346.39648266667,0.04907317472868825,-0.1482973960448018,0.2062306295364281,0.2015967518091202,-0.3890775740146637,0.1330457925796509,0.02514715492725372,0.01699715852737427,0.02058714628219604,XArbitraryZVertical,0.10442679678675,-0.07114667244152036,0.01671371545598424,0.9918436822342873,-0.1446234732866287,-0.2047718614339828,-0.968066394329071,0,0,0,-1,-1,16336.74327125,unknown,2,2021-04-05 21:54:29.709 -0400,2021-04-05 19:23:45.401 -0400,796,1.436661,0,0,588.679,0,0,2021-04-05 21:54:32.276 -0400,639366877.42532,0,-2.38,98.19479,1,0.63
2021-04-05 21:54:39.447 -0400,0,0,0,0,0,0,0,0,0,16346.46686954167,-0.1695098876953125,-0.22137451171875,-1.01263427734375,16346.45679854167,0.05343685376721827,-0.1671438250303125,0.2089581052239341,-0.01055004633963108,-0.2444693446159363,-0.01608430407941341,-0.002993181347846985,-0.01446785032749176,-0.03222674131393433,XArbitraryZVertical,0.1061058962551779,-0.0802134681562517,0.0177744514840253,0.9909547433339431,-0.162747785449028,-0.2074407786130905,-0.9646146893501282,0,0,0,-1,-1,16336.74327125,unknown,2,2021-04-05 21:54:29.709 -0400,2021-04-05 19:23:45.401 -0400,796,1.436661,0,0,588.679,0,0,2021-04-05 21:54:32.276 -0400,639366877.42532,0,-2.38,98.19479,1,0.63
2021-04-05 21:54:39.478 -0400,0,0,0,0,0,0,0,0,0,16346.50203654167,-0.185089111328125,-0.23126220703125,-0.9440460205078125,16346.48698054167,0.05259824368569609,-0.1697979949615823,0.2090226983425182,0.03290828317403793,-0.01700666546821594,-0.01910003460943699,-0.01039974391460419,-0.01156650483608246,-0.02333688735961914,XArbitraryZVertical,0.1061271765094695,-0.08157184055831232,0.01721534442253601,0.9908514990705298,-0.1653051972389221,-0.2075039744377136,-0.9641661047935486,0,0,0,-1,-1,16336.74327125,unknown,2,2021-04-05 21:54:29.709 -0400,2021-04-05 19:23:45.401 -0400,796,1.436661,0,0,588.679,0,0,2021-04-05 21:54:32.276 -0400,639366877.42532,0,-2.38,98.19479,1,0.63
2021-04-05 21:54:39.517 -0400,0,0,0,0,0,0,0,0,0,16346.53727354167,-0.1870574951171875,-0.2491302490234375,-0.932373046875,16346.51716254167,0.0509856844552798,-0.1680140269291094,0.2089181537045866,-0.06862924247980118,0.07093750685453415,-0.07916846871376038,-0.0294962078332901,-0.02515757083892822,0.03171110153198242,XArbitraryZVertical,0.1059949102163858,-0.08077529096266911,0.01651553328739757,0.9909428317138462,-0.1635885089635849,-0.2074016928672791,-0.9644808769226074,0,0,0,-1,-1,16336.74327125,unknown,2,2021-04-05 21:54:29.709 -0400,2021-04-05 19:23:45.401 -0400,796,1.436661,0,0,588.679,0,0,2021-04-05 21:54:32.276 -0400,639366877.42532,0,-2.38,98.19479,1,0.63
2021-04-05 21:54:39.548 -0400,0,0,0,0,0,0,0,0,0,16346.57244054167,-0.1644134521484375,-0.2479095458984375,-0.9340362548828125,16346.54731354167,0.0473505361423628,-0.1645223745702133,0.207038595448917,-0.08009559661149979,0.1019200310111046,-0.131049782037735,-0.02332554757595062,-0.04262161254882812,0.03149962425231934,XArbitraryZVertical,0.1048909755928725,-0.07926768839051174,0.01497824762106187,0.9912064681687739,-0.1602834612131119,-0.2055626511573792,-0.9654290080070496,0,0,0,-1,-1,16336.74327125,unknown,2,2021-04-05 21:54:29.709 -0400,2021-04-05 19:23:45.401 -0400,796,1.436661,0,0,588.679,0,0,2021-04-05 21:54:32.276 -0400,639366877.42532,0,-2.38,98.19479,1,0.63
2021-04-05 21:54:39.588 -0400,0,0,0,0,0,0,0,0,0,16346.60764654167,-0.1701507568359375,-0.246063232421875,-0.926239013671875,16346.57749554167,0.04318486209989813,-0.1604922360448679,0.20638483903806,-0.035992830991745,0.1257258355617523,-0.1208151578903198,-0.008000656962394714,-0.04298679530620575,0.03216338157653809,XArbitraryZVertical,0.1043754659604643,-0.07749812422642309,0.01315148054403084,0.9914266460345003,-0.1564127951860428,-0.2049228101968765,-0.9661995768547058,0,0,0,-1,-1,16336.74327125,unknown,2,2021-04-05 21:54:29.709 -0400,2021-04-05 19:23:45.401 -0400,796,1.436661,0,0,588.679,0,0,2021-04-05 21:54:32.276 -0400,639366877.42532,0,-2.38,98.19479,1,0.63
2021-04-05 21:54:39.618 -0400,0,0,0,0,0,0,0,0,0,16346.64284454167,-0.1609344482421875,-0.2135009765625,-0.9657440185546875,16346.60764654167,0.03928605569179918,-0.1576059318311308,0.2065078961806845,-0.06998597085475922,0.07317519932985306,-0.1394773572683334,-0.01665337383747101,-0.03828869760036469,0.04557114839553833,XArbitraryZVertical,0.1042688767524789,-0.0762688507542074,0.01136422530371399,0.9915553398171703,-0.1536194384098053,-0.2050432562828064,-0.9666221141815186,0,0,0,-1,-1,16336.74327125,unknown,2,2021-04-05 21:54:29.709 -0400,2021-04-05 19:23:45.401 -0400,796,1.436661,0,0,588.679,0,0,2021-04-05 21:54:32.276 -0400,639366877.42532,0,-2.38,98.19479,1,0.63
2021-04-05 21:54:39.658 -0400,0,0,0,0,0,0,0,0,0,16346.67805054167,-0.1345977783203125,-0.1682891845703125,-1.030059814453125,16346.66801054167,0.02868957742313115,-0.1572031806621925,0.2047135445910889,-0.1276094913482666,-0.09791643172502518,-0.1649507135152817,0.00573498010635376,0.01371143758296967,-0.03515148162841797,XArbitraryZVertical,0.1029726139773136,-0.07664053101349505,0.006202892227499254,0.9917077573420929,-0.1532874703407288,-0.2032866925001144,-0.9670457243919373,0,0,0,-1,-1,16336.74327125,unknown,2,2021-04-05 21:54:29.709 -0400,2021-04-05 19:23:45.401 -0400,796,1.436661,0,0,588.679,0,0,2021-04-05 21:54:32.276 -0400,639366877.42532,0,-2.38,98.19479,1,0.63
2021-04-05 21:54:39.689 -0400,0,0,0,0,0,0,0,0,0,16346.71324854167,-0.124664306640625,-0.160797119140625,-1.04595947265625,16346.69816154167,0.02476178044301698,-0.1616988207881507,0.2041894941118017,-0.01090873964130878,-0.2016573399305344,-0.05658257752656937,0.03538185358047485,0.04034368693828583,-0.08110976219177246,XArbitraryZVertical,0.1025714374732788,-0.07907698747937765,0.004045512783066952,0.9915692778291066,-0.1576505303382874,-0.2027735561132431,-0.96645188331604,0,0,0,-1,-1,16336.74327125,unknown,2,2021-04-05 21:54:29.709 -0400,2021-04-05 19:23:45.401 -0400,796,1.436661,0,0,588.679,0,0,2021-04-05 21:54:32.276 -0400,639366877.42532,0,-2.38,98.19479,1,0.63
2021-04-05 21:54:39.790 -0400,0,0,0,0,0,0,0,0,0,16346.74845454167,-0.154083251953125,-0.172821044921875,-0.9821929931640625,16346.72834354167,0.02563019975814734,-0.1676355675270516,0.2074338298148186,0.1759964376688004,-0.1523235589265823,0.06620437651872635,0.03244583308696747,0.04016263782978058,-0.06768649816513062,XArbitraryZVertical,0.1042262103085888,-0.08194087849938053,0.004034263963242974,0.9911641424175136,-0.1632746756076813,-0.2059494256973267,-0.9648451805114746,0,0,0,-1,-1,16336.74327125,unknown,2,2021-04-05 21:54:29.709 -0400,2021-04-05 19:23:45.401 -0400,796,1.436661,0,0,588.679,0,0,2021-04-05 21:54:32.276 -0400,639366877.42532,0,-2.38,98.19479,1,0.63
2021-04-05 21:54:39.795 -0400,0,0,0,0,0,0,0,0,0,16346.78365254167,-0.1597442626953125,-0.177215576171875,-0.96539306640625,16346.75849554167,0.02899336881223967,-0.170207881399015,0.2125571140898251,0.2049717754125595,-0.01532645709812641,0.08075374364852905,0.005952924489974976,0.03769654035568237,-0.01096522808074951,XArbitraryZVertical,0.1069088142355882,-0.08298059646179744,0.005346352376718417,0.9907856557200131,-0.1655751168727875,-0.2109601497650146,-0.9633694291114807,0,0,0,-1,-1,16336.74327125,unknown,2,2021-04-05 21:54:29.709 -0400,2021-04-05 19:23:45.401 -0400,796,1.436661,0,0,588.679,0,0,2021-04-05 21:54:32.276 -0400,639366877.42532,0,-2.38,98.19479,1,0.63
2021-04-05 21:54:39.800 -0400,0,0,0,0,0,0,0,0,0,16346.81885854167,-0.1715240478515625,-0.1877899169921875,-0.9770660400390625,16346.78867654167,0.03191447326428917,-0.1689368896479243,0.2153611385490087,0.1521541327238083,0.03218734636902809,0.08006194978952408,0.0045061856508255,0.03648459911346436,-0.002400815486907959,XArbitraryZVertical,0.1084142060295389,-0.08215991754563505,0.00674148206869766,0.9906819655226112,-0.164250448346138,-0.2137002348899841,-0.9629921913146973,0,0,0,-1,-1,16336.74327125,unknown,2,2021-04-05 21:54:29.709 -0400,2021-04-05 19:23:45.401 -0400,796,1.436661,0,0,588.679,0,0,2021-04-05 21:54:32.276 -0400,639366877.42532,0,-2.38,98.19479,1,0.63
2021-04-05 21:54:39.830 -0400,0,0,0,0,0,0,0,0,0,16346.85402654167,-0.1768341064453125,-0.20672607421875,-0.9555511474609375,16346.81885854167,0.03516207666064545,-0.1674250503130405,0.2179022270457412,0.1753404438495636,0.04466241598129272,0.1017119213938713,-0.005479022860527039,0.03048241138458252,-0.01480764150619507,XArbitraryZVertical,0.1097994068951745,-0.08120126356743811,0.008324190872035222,0.9905964381602999,-0.162703350186348,-0.2161819338798523,-0.9627009034156799,0,0,0,-1,-1,16336.74327125,unknown,2,2021-04-05 21:54:29.709 -0400,2021-04-05 19:23:45.401 -0400,796,1.436661,0,0,588.679,0,0,2021-04-05 21:54:32.276 -0400,639366877.42532,0,-2.38,98.19479,1,0.63
2021-04-05 21:54:39.869 -0400,0,0,0,0,0,0,0,0,0,16346.88926254167,-0.1754608154296875,-0.2234649658203125,-0.9232635498046875,16346.87919254167,0.04436750288369685,-0.1661124261468203,0.2257234998844569,0.1865357756614685,0.0850900411605835,0.1463344693183899,-0.02053137123584747,0.01662766933441162,0.01897120475769043,XArbitraryZVertical,0.1140349677659454,-0.07992308955737502,0.01262389729656932,0.9901763172907287,-0.16115503013134,-0.2238115668296814,-0.9612166285514832,0,0,0,-1,-1,16336.74327125,unknown,2,2021-04-05 21:54:29.709 -0400,2021-04-05 19:23:45.401 -0400,796,1.436661,0,0,588.679,0,0,2021-04-05 21:54:32.276 -0400,639366877.42532,0,-2.38,98.19479,1,0.63
2021-04-05 21:54:39.900 -0400,0,0,0,0,0,0,0,0,0,16346.92443054167,-0.172271728515625,-0.25079345703125,-0.8720245361328125,16346.90937354167,0.05053388382744931,-0.1639607699658087,0.2287041599354239,0.135438472032547,0.1475226283073425,0.1767095029354095,-0.01750630140304565,-0.01480056345462799,0.0685800313949585,XArbitraryZVertical,0.1157388425531632,-0.07845474742001259,0.01567420190915286,0.9900524430783409,-0.1589768528938293,-0.2267156094312668,-0.960898756980896,0,0,0,-1,-1,16336.74327125,unknown,2,2021-04-05 21:54:29.709 -0400,2021-04-05 19:23:45.401 -0400,796,1.436661,0,0,588.679,0,0,2021-04-05 21:54:32.276 -0400,639366877.42532,0,-2.38,98.19479,1,0.63
2021-04-05 21:54:39.940 -0400,0,0,0,0,0,0,0,0,0,16346.95963654167,-0.177032470703125,-0.2472991943359375,-0.951568603515625,16346.93952554167,0.05548409914194146,-0.1625815812900835,0.2285752960275613,-0.05007697269320488,0.04129347577691078,0.1215417608618736,-0.01621772348880768,-0.02354729175567627,0.08080536127090454,XArbitraryZVertical,0.1158563960823281,-0.07748768906890448,0.0182099785535295,0.9900713828550209,-0.1576561778783798,-0.2265901118516922,-0.9611458778381348,0,0,0,-1,-1,16336.74327125,unknown,2,2021-04-05 21:54:29.709 -0400,2021-04-05 19:23:45.401 -0400,796,1.436661,0,0,588.679,0,0,2021-04-05 21:54:32.276 -0400,639366877.42532,0,-2.38,98.19479,1,0.63
2021-04-05 21:54:39.970 -0400,0,0,0,0,0,0,0,0,0,16346.99483454167,-0.1795501708984375,-0.2468719482421875,-0.986724853515625,16346.96970754167,0.05846176972431133,-0.1638222360585736,0.2245717932033276,-0.1206214427947998,-0.00507761025801301,0.1095187962055206,-0.01834248006343842,-0.02447299659252167,-0.003998696804046631,XArbitraryZVertical,0.1140029602178446,-0.07800569036659508,0.01978132136095696,0.9902156884997234,-0.1589951813220978,-0.2226889282464981,-0.9618368744850159,0,0,0,-1,-1,16336.74327125,unknown,2,2021-04-05 21:54:29.709 -0400,2021-04-05 19:23:45.401 -0400,796,1.436661,0,0,588.679,0,0,2021-04-05 21:54:32.276 -0400,639366877.42532,0,-2.38,98.19479,1,0.63
2021-04-05 21:54:40.010 -0400,0,0,0,0,0,0,0,0,0,16347.03004054167,-0.17578125,-0.251983642578125,-0.983062744140625,16346.99985854167,0.06201796472441044,-0.1647629573612404,0.2225787883775048,-0.0503707155585289,0.03778250515460968,0.1321801543235779,-0.01957777142524719,-0.02612647414207458,-0.02460205554962158,XArbitraryZVertical,0.113165438078959,-0.07830833465227559,0.02157318365255014,0.9902504317426057,-0.1599723994731903,-0.2207455337047577,-0.9621227979660034,0,0,0,-1,-1,16336.74327125,unknown,2,2021-04-05 21:54:29.709 -0400,2021-04-05 19:23:45.401 -0400,796,1.436661,0,0,588.679,0,0,2021-04-05 21:54:32.276 -0400,639366877.42532,0,-2.38,98.19479,1,0.63
2021-04-05 21:54:40.042 -0400,0,0,0,0,0,0,0,0,0,16347.06523854167,-0.182281494140625,-0.2455291748046875,-0.9528045654296875,16347.06022254167,0.07124207097205465,-0.1648836647223755,0.2212569424808808,0.001048042438924313,0.06168732792139053,0.1610326617956161,-0.01997844874858856,-0.02869763970375061,0.003665506839752197,XArbitraryZVertical,0.1128729755752969,-0.07787467371898035,0.02618982874450952,0.9902066678277693,-0.1601362973451614,-0.2194560915231705,-0.9623904824256897,0,0,0,-1,-1,16336.74327125,unknown,2,2021-04-05 21:54:29.709 -0400,2021-04-05 19:23:45.401 -0400,796,1.436661,0,0,588.679,0,0,2021-04-05 21:54:32.276 -0400,639366880.0037702,0,-2.36,98.19456,1,0.63
2021-04-05 21:54:40.081 -0400,0,0,0,0,0,0,0,0,0,16347.10044454167,-0.18255615234375,-0.25640869140625,-0.941864013671875,16347.09037354167,0.07542767433063297,-0.1643956079683081,0.2216356843547762,0.0138647835701704,0.06792528927326202,0.07762116938829422,-0.0265652984380722,-0.03398916125297546,0.01870661973953247,XArbitraryZVertical,0.1132161790116907,-0.07738786448696623,0.02827343057449974,0.990148375484469,-0.1596529632806778,-0.2198255956172943,-0.962386429309845,0,0,0,-1,-1,16336.74327125,unknown,2,2021-04-05 21:54:29.709 -0400,2021-04-05 19:23:45.401 -0400,796,1.436661,0,0,588.679,0,0,2021-04-05 21:54:32.276 -0400,639366880.0037702,0,-2.36,98.19456,1,0.63
2021-04-05 21:54:40.111 -0400,0,0,0,0,0,0,0,0,0,16347.13564254167,-0.1583251953125,-0.246063232421875,-0.928924560546875,16347.12055554167,0.07609320550388311,-0.1628508571063743,0.2220250272392385,-0.01441814377903938,0.06500791758298874,-0.03094103001058102,-0.01804099977016449,-0.03251072764396667,0.0281296968460083,XArbitraryZVertical,0.1134124271642472,-0.07657631774025951,0.02867383117125077,0.9901774947684218,-0.158152237534523,-0.2202053964138031,-0.9625473618507385,0,0,0,-1,-1,16336.74327125,unknown,2,2021-04-05 21:54:29.709 -0400,2021-04-05 19:23:45.401 -0400,796,1.436661,0,0,588.679,0,0,2021-04-05 21:54:32.276 -0400,639366880.0037702,0,-2.36,98.19456,1,0.63
2021-04-05 21:54:40.151 -0400,0,0,0,0,0,0,0,0,0,16347.17084854167,-0.137481689453125,-0.2156524658203125,-0.935333251953125,16347.15073754167,0.07403807880122135,-0.1617055838879577,0.2228162226486486,-0.02011048421263695,0.03030312061309814,-0.1088613122701645,0.006600499153137207,-0.01652601361274719,0.0345923900604248,XArbitraryZVertical,0.1137092838144668,-0.07610772190724836,0.0276878888957074,0.9902077266202285,-0.1570216417312622,-0.2209770977497101,-0.9625556468963623,0,0,0,-1,-1,16336.74327125,unknown,2,2021-04-05 21:54:29.709 -0400,2021-04-05 19:23:45.401 -0400,796,1.436661,0,0,588.679,0,0,2021-04-05 21:54:32.276 -0400,639366880.0037702,0,-2.36,98.19456,1,0.63
2021-04-05 21:54:40.182 -0400,0,0,0,0,0,0,0,0,0,16347.20601554167,-0.13934326171875,-0.18414306640625,-0.9755859375,16347.18088854167,0.06995804038773021,-0.1605028359768765,0.2226725449527723,-0.1067741364240646,0.04658335074782372,-0.1484479308128357,0.01979102194309235,0.009990975260734558,0.02452749013900757,XArbitraryZVertical,0.1134672375401881,-0.07574713273366314,0.02574207235376214,0.9903155820211383,-0.1558689028024673,-0.2208369672298431,-0.9627751111984253,0,0,0,-1,-1,16336.74327125,unknown,2,2021-04-05 21:54:29.709 -0400,2021-04-05 19:23:45.401 -0400,796,1.436661,0,0,588.679,0,0,2021-04-05 21:54:32.276 -0400,639366880.0037702,0,-2.36,98.19456,1,0.63
2021-04-05 21:54:40.250 -0400,0,0,0,0,0,0,0,0,0,16347.24122254167,-0.1312713623046875,-0.174407958984375,-1.027587890625,16347.21107054167,0.06492902246072124,-0.157552970501436,0.2205407699827343,-0.1520896703004837,0.1163292229175568,-0.1395611315965652,0.01375842094421387,0.0346142053604126,-0.01189243793487549,XArbitraryZVertical,0.1121867945194976,-0.074614939327786,0.02350602200597374,0.9906029000868289,-0.1531016826629639,-0.2187573313713074,-0.9636934399604797,0,0,0,-1,-1,16336.74327125,unknown,2,2021-04-05 21:54:29.709 -0400,2021-04-05 19:23:45.401 -0400,796,1.436661,0,0,588.679,0,0,2021-04-05 21:54:32.276 -0400,639366880.0037702,0,-2.36,98.19456,1,0.63
2021-04-05 21:54:40.293 -0400,0,0,0,0,0,0,0,0,0,16347.27641954167,-0.117462158203125,-0.185699462890625,-0.9989013671875,16347.24122254167,0.06063238418032787,-0.1532824998963085,0.2180290046022645,-0.0949198380112648,0.1104861870408058,-0.08030103892087936,0.01680511236190796,0.03997509181499481,-0.05710941553115845,XArbitraryZVertical,0.1107365480493172,-0.07278858108400418,0.02171668154958521,0.9909427726939635,-0.149068295955658,-0.2163057178258896,-0.9648784995079041,0,0,0,-1,-1,16336.74327125,unknown,2,2021-04-05 21:54:29.709 -0400,2021-04-05 19:23:45.401 -0400,796,1.436661,0,0,588.679,0,0,2021-04-05 21:54:32.276 -0400,639366880.0037702,0,-2.36,98.19456,1,0.63
2021-04-05 21:54:40.299 -0400,0,0,0,0,0,0,0,0,0,16347.31162654167,-0.13848876953125,-0.201171875,-0.957244873046875,16347.30158554167,0.06417422636771147,-0.1463108072591152,0.2171656482033311,0.03916045278310776,0.1067053526639938,0.1675404757261276,0.02250728011131287,0.02063843607902527,0.006010949611663818,XArbitraryZVertical,0.1103551293388089,-0.06915494228038997,0.02389069198114526,0.9911955777566411,-0.1423650681972504,-0.21546271443367,-0.9660786986351013,0,0,0,-1,-1,16336.74327125,unknown,2,2021-04-05 21:54:29.709 -0400,2021-04-05 19:23:45.401 -0400,796,1.436661,0,0,588.679,0,0,2021-04-05 21:54:32.276 -0400,639366880.0037702,0,-2.36,98.19456,1,0.63
2021-04-05 21:54:40.323 -0400,0,0,0,0,0,0,0,0,0,16347.34682454167,-0.164398193359375,-0.2208099365234375,-0.95513916015625,16347.33173754167,0.06986686402603456,-0.1445045685479695,0.2158408707242117,0.03716367110610008,0.09213992208242416,0.1911858767271042,-0.01859511435031891,0.007305413484573364,-0.001981496810913086,XArbitraryZVertical,0.1098711348830282,-0.06797352688586362,0.02686168129275361,0.9912550293123672,-0.1406608521938324,-0.2141688615083694,-0.9666158556938171,0,0,0,-1,-1,16336.74327125,unknown,2,2021-04-05 21:54:29.709 -0400,2021-04-05 19:23:45.401 -0400,796,1.436661,0,0,588.679,0,0,2021-04-05 21:54:32.276 -0400,639366880.0037702,0,-2.36,98.19456,1,0.63
2021-04-05 21:54:40.362 -0400,0,0,0,0,0,0,0,0,0,16347.38203054167,-0.1531829833984375,-0.227203369140625,-0.872955322265625,16347.36191954167,0.07568383502400611,-0.1412774867544188,0.2159050685095876,0.08846051245927811,0.1594648659229279,0.1730822920799255,-0.02469260990619659,-0.01291081309318542,0.03728735446929932,XArbitraryZVertical,0.1100520433336094,-0.06605285344205278,0.02991979510899666,0.9912771287158736,-0.1375388354063034,-0.2142315655946732,-0.9670511484146118,0,0,0,-1,-1,16336.74327125,unknown,2,2021-04-05 21:54:29.709 -0400,2021-04-05 19:23:45.401 -0400,796,1.436661,0,0,588.679,0,0,2021-04-05 21:54:32.276 -0400,639366880.0037702,0,-2.36,98.19456,1,0.63
2021-04-05 21:54:40.393 -0400,0,0,0,0,0,0,0,0,0,16347.41722854167,-0.150146484375,-0.234130859375,-0.888671875,16347.39210154167,0.08035747476634941,-0.1374263252425046,0.2162301406920595,-0.00542785506695509,0.120257280766964,0.1269606798887253,-0.02044709026813507,-0.01288321614265442,0.09996616840362549,XArbitraryZVertical,0.1103048408851025,-0.06387905553573946,0.03243650945966652,0.9913123957901533,-0.1338040083646774,-0.2145490795373917,-0.967504620552063,0,0,0,-1,-1,16336.74327125,unknown,2,2021-04-05 21:54:29.709 -0400,2021-04-05 19:23:45.401 -0400,796,1.436661,0,0,588.679,0,0,2021-04-05 21:54:32.276 -0400,639366880.0037702,0,-2.36,98.19456,1,0.63
2021-04-05 21:54:40.433 -0400,0,0,0,0,0,0,0,0,0,16347.452438125,-0.1467132568359375,-0.2255401611328125,-0.988983154296875,16347.422256125,0.08297872372101654,-0.1374820628270869,0.2133195899205345,-0.1494168639183044,-0.04897303879261017,0.04352446645498276,-0.01620353758335114,-0.02242550253868103,0.07943975925445557,XArbitraryZVertical,0.1089476164841862,-0.06383263267092792,0.03383839382889883,0.9914186347924576,-0.1339429467916489,-0.2117054015398026,-0.9681116342544556,0,0,0,-1,-1,16336.74327125,unknown,2,2021-04-05 21:54:29.709 -0400,2021-04-05 19:23:45.401 -0400,796,1.436661,0,0,588.679,0,0,2021-04-05 21:54:32.276 -0400,639366880.0037702,0,-2.36,98.19456,1,0.63
2021-04-05 21:54:40.463 -0400,0,0,0,0,0,0,0,0,0,16347.487605125,-0.14190673828125,-0.204345703125,-1.0169677734375,16347.452438125,0.08279763376966574,-0.1408192384160177,0.2085751353786653,-0.1999699771404266,-0.08527147769927979,-0.003359686816111207,-0.0103621780872345,-0.02160215377807617,-0.01004064083099365,XArbitraryZVertical,0.106647549482067,-0.06561163169535476,0.03374293156190033,0.9915557632595821,-0.1373123824596405,-0.2070661336183548,-0.9686428308486938,0,0,0,-1,-1,16336.74327125,unknown,2,2021-04-05 21:54:29.709 -0400,2021-04-05 19:23:45.401 -0400,796,1.436661,0,0,588.679,0,0,2021-04-05 21:54:32.276 -0400,639366880.0037702,0,-2.36,98.19456,1,0.63
2021-04-05 21:54:40.503 -0400,0,0,0,0,0,0,0,0,0,16347.522842125,-0.13006591796875,-0.2097015380859375,-1.008331298828125,16347.512771125,0.08121981196289581,-0.1433451115214214,0.2024380309921271,-0.1315224170684814,0.03865399584174156,-0.02733574435114861,0.004912495613098145,-0.01471641659736633,-0.05121952295303345,XArbitraryZVertical,0.1035961966628325,-0.06709412645400634,0.03305717176891843,0.991803084572412,-0.1399375200271606,-0.2010581642389297,-0.9695324301719666,0,0,0,-1,-1,16336.74327125,unknown,2,2021-04-05 21:54:29.709 -0400,2021-04-05 19:23:45.401 -0400,796,1.436661,0,0,588.679,0,0,2021-04-05 21:54:32.276 -0400,639366880.0037702,0,-2.36,98.19456,1,0.63
2021-04-05 21:54:40.534 -0400,0,0,0,0,0,0,0,0,0,16347.558009125,-0.117706298828125,-0.191802978515625,-0.9918365478515625,16347.542953125,0.07941513307211959,-0.1416489719732227,0.1996677557669844,-0.1173159554600716,0.05209691449999809,-0.04460322856903076,0.01457642018795013,-0.009145364165306091,-0.03174382448196411,XArbitraryZVertical,0.1021350709700855,-0.06641080405097312,0.03235295929798761,0.9920239371429089,-0.1383709609508514,-0.1983436942100525,-0.9703160524368286,0,0,0,-1,-1,16336.74327125,unknown,2,2021-04-05 21:54:29.709 -0400,2021-04-05 19:23:45.401 -0400,796,1.436661,0,0,588.679,0,0,2021-04-05 21:54:32.276 -0400,639366880.0037702,0,-2.36,98.19456,1,0.63
2021-04-05 21:54:40.574 -0400,0,0,0,0,0,0,0,0,0,16347.593215125,-0.1196441650390625,-0.18408203125,-0.98443603515625,16347.573104125,0.07783176899598106,-0.1398207272056142,0.1968212012944787,-0.1013159230351448,0.04675948992371559,-0.03019116818904877,0.01785469055175781,0.01017381250858307,-0.02149218320846558,XArbitraryZVertical,0.1006421938703726,-0.06564956364630049,0.03176521028989087,0.9922460681214059,-0.1366748809814453,-0.1955529004335403,-0.9711225628852844,0,0,0,-1,-1,16336.74327125,unknown,2,2021-04-05 21:54:29.709 -0400,2021-04-05 19:23:45.401 -0400,796,1.436661,0,0,588.679,0,0,2021-04-05 21:54:32.276 -0400,639366880.0037702,0,-2.36,98.19456,1,0.63
2021-04-05 21:54:40.604 -0400,0,0,0,0,0,0,0,0,0,16347.628413125,-0.1282806396484375,-0.17266845703125,-0.9637908935546875,16347.603286125,0.07676984306814602,-0.1384446546221294,0.1942960470965901,-0.08609314262866974,0.02404366806149483,-0.00473291240632534,0.01371729373931885,0.01311366260051727,-0.008154213428497314,XArbitraryZVertical,0.09933351893694203,-0.06507688753861252,0.03139914033527483,0.9924273015416024,-0.1354061365127563,-0.193075880408287,-0.9717956781387329,0,0,0,-1,-1,16336.74327125,unknown,2,2021-04-05 21:54:29.709 -0400,2021-04-05 19:23:45.401 -0400,796,1.436661,0,0,588.679,0,0,2021-04-05 21:54:32.276 -0400,639366880.0037702,0,-2.36,98.19456,1,0.63
2021-04-05 21:54:40.644 -0400,0,0,0,0,0,0,0,0,0,16347.663619125,-0.126495361328125,-0.169342041015625,-0.9742279052734375,16347.633468125,0.07666603328619528,-0.1377215473020509,0.192283960711448,-0.05872930213809013,-0.003765573259443045,0.008697026409208775,0.00647580623626709,0.01843273639678955,0.008485317230224609,XArbitraryZVertical,0.09832080993998124,-0.06476817889150269,0.03145609875570735,0.9925465835322721,-0.1347564458847046,-0.1911012530326843,-0.9722762107849121,0,0,0,-1,-1,16336.74327125,unknown,2,2021-04-05 21:54:29.709 -0400,2021-04-05 19:23:45.401 -0400,796,1.436661,0,0,588.679,0,0,2021-04-05 21:54:32.276 -0400,639366880.0037702,0,-2.36,98.19456,1,0.63
2021-04-05 21:54:40.675 -0400,0,0,0,0,0,0,0,0,0,16347.698817125,-0.12310791015625,-0.1729736328125,-0.9821319580078125,16347.663619125,0.07630459035454511,-0.1374354929173682,0.1895960056906607,-0.102200947701931,-0.008395704440772533,0.007538517471402884,0.006969466805458069,0.01657184958457947,-0.001148462295532227,XArbitraryZVertical,0.09697123398120273,-0.06470368262741669,0.03138745444392669,0.9926857446794977,-0.1345482021570206,-0.1884621530771255,-0.9728200435638428,0,0,0,-1,-1,16336.74327125,unknown,2,2021-04-05 21:54:29.709 -0400,2021-04-05 19:23:45.401 -0400,796,1.436661,0,0,588.679,0,0,2021-04-05 21:54:32.276 -0400,639366880.0037702,0,-2.36,98.19456,1,0.63
2021-04-05 21:54:40.751 -0400,0,0,0,0,0,0,0,0,0,16347.734023125,-0.1388092041015625,-0.1808624267578125,-1.002853393554688,16347.723953125,0.07699822368207176,-0.1360270486108215,0.1843085601432041,-0.04445980861783028,0.03748644515872002,0.02992393262684345,0.003962412476539612,0.004799991846084595,-0.02069240808486938,XArbitraryZVertical,0.09434779453883387,-0.06408880295759202,0.03198825873080139,0.9929592294539392,-0.1333111822605133,-0.1832668483257294,-0.9739822149276733,0,0,0,-1,-1,16336.74327125,unknown,2,2021-04-05 21:54:29.709 -0400,2021-04-05 19:23:45.401 -0400,796,1.436661,0,0,588.679,0,0,2021-04-05 21:54:32.276 -0400,639366880.0037702,0,-2.36,98.19456,1,0.63
2021-04-05 21:54:40.794 -0400,0,0,0,0,0,0,0,0,0,16347.769221125,-0.14227294921875,-0.1792449951171875,-0.994140625,16347.754135125,0.07774095815486909,-0.133958458447323,0.1835560757829695,0.01402274146676064,0.1000057011842728,0.0178686361759901,-0.01100420951843262,0.001222074031829834,-0.0294833779335022,XArbitraryZVertical,0.09396464226608101,-0.06304356997923811,0.03248099784068258,0.993046365253013,-0.1313145011663437,-0.1825270503759384,-0.974392294883728,0,0,0,-1,-1,16336.74327125,unknown,2,2021-04-05 21:54:29.709 -0400,2021-04-05 19:23:45.401 -0400,796,1.436661,0,0,588.679,0,0,2021-04-05 21:54:32.276 -0400,639366880.0037702,0,-2.36,98.19456,1,0.63
2021-04-05 21:54:40.799 -0400,0,0,0,0,0,0,0,0,0,16347.804427125,-0.1446990966796875,-0.17626953125,-0.9745025634765625,16347.784316125,0.07808066069536235,-0.1303080370605784,0.1837147545801611,0.02089882455766201,0.1181643009185791,-0.0006636022590100765,-0.01126989722251892,0.001973181962966919,-0.01529109477996826,XArbitraryZVertical,0.09399435812776251,-0.06121144545950963,0.03281571447064561,0.9931471738679813,-0.1277529299259186,-0.182683065533638,-0.9748364686965942,0,0,0,-1,-1,16336.74327125,unknown,2,2021-04-05 21:54:29.709 -0400,2021-04-05 19:23:45.401 -0400,796,1.436661,0,0,588.679,0,0,2021-04-05 21:54:32.276 -0400,639366880.0037702,0,-2.36,98.19456,1,0.63
2021-04-05 21:54:40.816 -0400,0,0,0,0,0,0,0,0,0,16347.839595125,-0.1348419189453125,-0.1792144775390625,-0.93450927734375,16347.814468125,0.07778928696812906,-0.1268710249448689,0.1844206683685554,0.03894973173737526,0.1090927794575691,-0.02441420592367649,-0.02154975384473801,0.008602827787399292,0.003385663032531738,XArbitraryZVertical,0.09427956338097107,-0.05950261585442051,0.03280896897337512,0.99322424112051,-0.1243853121995926,-0.1833770573139191,-0.9751415848731995,0,0,0,-1,-1,16336.74327125,unknown,2,2021-04-05 21:54:29.709 -0400,2021-04-05 19:23:45.401 -0400,796,1.436661,0,0,588.679,0,0,2021-04-05 21:54:32.276 -0400,639366880.0037702,0,-2.36,98.19456,1,0.63
2021-04-05 21:54:40.856 -0400,0,0,0,0,0,0,0,0,0,16347.874832125,-0.1348114013671875,-0.1819000244140625,-0.9273223876953125,16347.844650125,0.07726551481630738,-0.1244203299485171,0.1855817645849392,0.04046917334198952,0.06749405711889267,-0.02614183165132999,-0.01287326216697693,0.005303815007209778,0.0407223105430603,XArbitraryZVertical,0.0948004148007395,-0.05828459141697822,0.03262635988538357,0.9932528690608478,-0.1219686567783356,-0.1845183372497559,-0.9752315878868103,0,0,0,-1,-1,16336.74327125,unknown,2,2021-04-05 21:54:29.709 -0400,2021-04-05 19:23:45.401 -0400,796,1.436661,0,0,588.679,0,0,2021-04-05 21:54:32.276 -0400,639366880.0037702,0,-2.36,98.19456,1,0.63
2021-04-05 21:54:40.887 -0400,0,0,0,0,0,0,0,0,0,16347.909999125,-0.11419677734375,-0.1872100830078125,-0.9642486572265625,16347.904983125,0.07332739101968842,-0.1236312901298886,0.1841389420907857,-0.06808869540691376,0.01296182349324226,-0.1071937903761864,-0.002303332090377808,-0.008428275585174561,0.01567554473876953,XArbitraryZVertical,0.09395702682913515,-0.05810964829276138,0.03075465574508824,0.9934030011708741,-0.1212318316102028,-0.1831001043319702,-0.975590705871582,0,0,0,-1,-1,16336.74327125,unknown,2,2021-04-05 21:54:29.709 -0400,2021-04-05 19:23:45.401 -0400,796,1.436661,0,0,588.679,0,0,2021-04-05 21:54:32.276 -0400,639366880.0037702,0,-2.36,98.19456,1,0.63
2021-04-05 21:54:40.926 -0400,0,0,0,0,0,0,0,0,0,16347.945205125,-0.107147216796875,-0.168304443359375,-0.9823455810546875,16347.935165125,0.07002740124014666,-0.1233011066801155,0.1825232142267829,-0.07712474465370178,-0.005857609212398529,-0.09530878067016602,0.01759814471006393,0.005119785666465759,0.01162856817245483,XArbitraryZVertical,0.09305391417191161,-0.05813324573334192,0.02918311751938064,0.9935340690305071,-0.120945930480957,-0.1815114468336105,-0.9759230017662048,0,0,0,-1,-1,16336.74327125,unknown,2,2021-04-05 21:54:29.709 -0400,2021-04-05 19:23:45.401 -0400,796,1.436661,0,0,588.679,0,0,2021-04-05 21:54:32.276 -0400,639366880.0037702,0,-2.36,98.19456,1,0.63
2021-04-05 21:54:40.957 -0400,0,0,0,0,0,0,0,0,0,16347.980403125,-0.0996856689453125,-0.1654510498046875,-1.027786254882812,16347.965316125,0.06721835536770827,-0.1238717734082585,0.1802295127083645,-0.121680349111557,-0.02390601485967636,-0.07560860365629196,0.01606994122266769,0.01058466732501984,-0.02906090021133423,XArbitraryZVertical,0.09184101084936036,-0.05859211329509263,0.0278352565210175,0.9936586316858824,-0.1215539574623108,-0.1792553663253784,-0.9762643575668335,0,0,0,-1,-1,16336.74327125,unknown,2,2021-04-05 21:54:29.709 -0400,2021-04-05 19:23:45.401 -0400,796,1.436661,0,0,588.679,0,0,2021-04-05 21:54:32.276 -0400,639366880.0037702,0,-2.36,98.19456,1,0.63
2021-04-05 21:54:40.996 -0400,0,0,0,0,0,0,0,0,0,16348.015609125,-0.0990753173828125,-0.1742401123046875,-1.03411865234375,16347.995498125,0.06527413356286217,-0.1243063108975454,0.1778374566934329,-0.07060796767473221,-0.008599517866969109,-0.01955453678965569,0.02341342717409134,0.01610440015792847,-0.05785065889358521,XArbitraryZVertical,0.09060175730439615,-0.05894269553632096,0.02692678943450717,0.9937766789958771,-0.1220309808850288,-0.1769015491008759,-0.97663414478302,0,0,0,-1,-1,16336.74327125,unknown,2,2021-04-05 21:54:29.709 -0400,2021-04-05 19:23:45.401 -0400,796,1.436661,0,0,588.679,0,0,2021-04-05 21:54:32.276 -0400,639366880.0037702,0,-2.36,98.19456,1,0.63
2021-04-05 21:54:41.027 -0400,0,0,0,0,0,0,0,0,0,16348.050807125,-0.12689208984375,-0.186492919921875,-0.99542236328125,16348.025680125,0.06543979134853894,-0.1236009037933979,0.176920745941245,-0.003888159990310669,0.02059956453740597,0.0356462188065052,0.01993680000305176,-0.003566265106201172,-0.05288934707641602,XArbitraryZVertical,0.09014175460407459,-0.05860209477718873,0.02707056675798537,0.9938347073042749,-0.1213619709014893,-0.1759992241859436,-0.9768804907798767,0,0,0,-1,-1,16336.74327125,unknown,2,2021-04-05 21:54:29.709 -0400,2021-04-05 19:23:45.401 -0400,796,1.436661,0,0,588.679,0,0,2021-04-05 21:54:32.276 -0400,639366880.0037702,0,-2.36,98.19456,1,0.63
2021-04-05 21:54:41.067 -0400,0,0,0,0,0,0,0,0,0,16348.086013125,-0.1347503662109375,-0.1997222900390625,-0.9808349609375,16348.055831125,0.06681124662573333,-0.1223205080757033,0.1770412709204584,0.04045878723263741,0.0325898751616478,0.04528335109353065,-0.006783604621887207,-0.01037509739398956,-0.01840829849243164,XArbitraryZVertical,0.09022399828245477,-0.05790168828580309,0.02780594349440296,0.9938480485783346,-0.1201084852218628,-0.176117867231369,-0.9770140647888184,0,0,0,-1,-1,16336.74327125,unknown,2,2021-04-05 21:54:29.709 -0400,2021-04-05 19:23:45.401 -0400,796,1.436661,0,0,588.679,0,0,2021-04-05 21:54:32.276 -0400,639366880.0037702,0,-2.36,98.19456,1,0.63
2021-04-05 21:54:41.097 -0400,0,0,0,0,0,0,0,0,0,16348.121211125,-0.133544921875,-0.1904449462890625,-0.9847412109375,16348.086013125,0.06741691461516644,-0.1211994980538355,0.1769693614792304,0.009224690496921539,0.005779257509857416,-0.003340428695082664,-0.01526264846324921,-0.02497225999832153,-0.004559338092803955,XArbitraryZVertical,0.09019004557664176,-0.05731870236505626,0.02815976543762208,0.9938748922103796,-0.1190147027373314,-0.1760470867156982,-0.977160632610321,0,0,0,-1,-1,16336.74327125,unknown,2,2021-04-05 21:54:29.709 -0400,2021-04-05 19:23:45.401 -0400,796,1.436661,0,0,588.679,0,0,2021-04-05 21:54:32.276 -0400,639366880.0037702,0,-2.36,98.19456,1,0.63
2021-04-05 21:54:41.137 -0400,0,0,0,0,0,0,0,0,0,16348.156417125,-0.12225341796875,-0.1843109130859375,-0.9831695556640625,16348.146346125,0.06479528659339324,-0.1219494049124906,0.1781024995442564,0.04063509032130241,-0.04164654016494751,-0.06704745441675186,-0.009381517767906189,-0.008140385150909424,-0.01302617788314819,XArbitraryZVertical,0.09068778570356469,-0.05778823286650881,0.02678716959260853,0.9938404239450654,-0.1197231039404869,-0.1771624088287354,-0.9768725037574768,0,0,0,-1,-1,16336.74327125,unknown,2,2021-04-05 21:54:29.709 -0400,2021-04-05 19:23:45.401 -0400,796,1.436661,0,0,588.679,0,0,2021-04-05 21:54:32.276 -0400,639366880.0037702,0,-2.36,98.19456,1,0.63
2021-04-05 21:54:41.167 -0400,0,0,0,0,0,0,0,0,0,16348.191585125,-0.115264892578125,-0.1814117431640625,-0.951171875,16348.176528125,0.06330002964107311,-0.1229533601897332,0.1807032553046458,0.0760606974363327,-0.01848617568612099,-0.0459262877702713,0.002665899693965912,0.003390789031982422,0.005466043949127197,XArbitraryZVertical,0.0919494524218763,-0.05830684791775742,0.02591542399124299,0.9937172595974294,-0.1206468567252159,-0.1797214150428772,-0.9762912392616272,0,0,0,-1,-1,16336.74327125,unknown,2,2021-04-05 21:54:29.709 -0400,2021-04-05 19:23:45.401 -0400,796,1.436661,0,0,588.679,0,0,2021-04-05 21:54:32.276 -0400,639366880.0037702,0,-2.36,98.19456,1,0.63
2021-04-05 21:54:41.208 -0400,0,0,0,0,0,0,0,0,0,16348.226791125,-0.128509521484375,-0.1725006103515625,-0.9500732421875,16348.206680125,0.06277746294013412,-0.1237146177243449,0.1838524664452179,0.07160890847444534,-0.01797917112708092,-0.03520531952381134,0.0009430050849914551,0.005770668387413025,0.03227323293685913,XArbitraryZVertical,0.09350799770839269,-0.05865113532412396,0.02551941097805987,0.9935617794166345,-0.121319591999054,-0.1828184574842453,-0.9756326079368591,0,0,0,-1,-1,16336.74327125,unknown,2,2021-04-05 21:54:29.709 -0400,2021-04-05 19:23:45.401 -0400,796,1.436661,0,0,588.679,0,0,2021-04-05 21:54:32.276 -0400,639366880.0037702,0,-2.36,98.19456,1,0.63
2021-04-05 21:54:41.296 -0400,0,0,0,0,0,0,0,0,0,16348.261989125,-0.116058349609375,-0.1616363525390625,-0.9576416015625,16348.236862125,0.0615708338283264,-0.1240686382140559,0.1847851914553021,0.007327210158109665,-0.01683915220201015,-0.05016189441084862,-0.004286967217922211,0.01132626831531525,0.02481269836425781,XArbitraryZVertical,0.09394018631457621,-0.05886648170085965,0.02487333490300685,0.9935247359579232,-0.1216438263654709,-0.1837353855371475,-0.9754199385643005,0,0,0,-1,-1,16336.74327125,unknown,2,2021-04-05 21:54:29.709 -0400,2021-04-05 19:23:45.401 -0400,796,1.436661,0,0,588.679,0,0,2021-04-05 21:54:32.276 -0400,639366880.0037702,0,-2.36,98.19456,1,0.63
2021-04-05 21:54:41.301 -0400,0,0,0,0,0,0,0,0,0,16348.297195125,-0.1152801513671875,-0.1515350341796875,-1.002822875976562,16348.267043125,0.06008864813856517,-0.1248053830124165,0.1850493868182075,-0.003341080155223608,-0.06522655487060547,-0.0438777357339859,0.00629802793264389,0.02235867083072662,0.01764029264450073,XArbitraryZVertical,0.09403661721996255,-0.05929737087988565,0.02409387918423227,0.993509179197654,-0.1223563775420189,-0.1839950829744339,-0.9752818942070007,0,0,0,-1,-1,16336.74327125,unknown,2,2021-04-05 21:54:29.709 -0400,2021-04-05 19:23:45.401 -0400,796,1.436661,0,0,588.679,0,0,2021-04-05 21:54:32.276 -0400,639366880.0037702,0,-2.36,98.19456,1,0.63
2021-04-05 21:54:41.309 -0400,0,0,0,0,0,0,0,0,0,16348.332393125,-0.1161651611328125,-0.1562042236328125,-0.9549713134765625,16348.327377125,0.06033537540326793,-0.1276576616356468,0.1827068375772925,-0.002428248291835189,0.02170385420322418,0.09187285602092743,0.01194144785404205,0.03087408840656281,-0.001391828060150146,XArbitraryZVertical,0.09291515173251733,-0.06074454919436354,0.02415989494678393,0.9935257048580785,-0.1251921802759171,-0.1816920191049576,-0.9753537774085999,0,0,0,-1,-1,16336.74327125,unknown,2,2021-04-05 21:54:29.709 -0400,2021-04-05 19:23:45.401 -0400,796,1.436661,0,0,588.679,0,0,2021-04-05 21:54:32.276 -0400,639366880.0037702,0,-2.36,98.19456,1,0.63
2021-04-05 21:54:41.349 -0400,0,0,0,0,0,0,0,0,0,16348.367599125,-0.1310272216796875,-0.170257568359375,-0.9432220458984375,16348.357559125,0.06370309852333109,-0.127280771573531,0.181828635322071,-0.03178939968347549,0.0008341569919139147,0.1062942445278168,-0.003939397633075714,0.01287482678890228,0.0437961220741272,XArbitraryZVertical,0.092576352032522,-0.06041723086238193,0.02587941447946847,0.9935339074275245,-0.1248447820544243,-0.1808283627033234,-0.9755587577819824,0,0,0,-1,-1,16336.74327125,unknown,2,2021-04-05 21:54:29.709 -0400,2021-04-05 19:23:45.401 -0400,796,1.436661,0,0,588.679,0,0,2021-04-05 21:54:32.276 -0400,639366880.0037702,0,-2.36,98.19456,1,0.63
2021-04-05 21:54:41.379 -0400,0,0,0,0,0,0,0,0,0,16348.402797125,-0.1110687255859375,-0.1675872802734375,-0.9845123291015625,16348.387710125,0.06579803354080878,-0.1285529663354064,0.1779779987994267,-0.1249900832772255,-0.07565293461084366,0.06332418322563171,0.001891285181045532,0.005424231290817261,0.01287144422531128,XArbitraryZVertical,0.09074451688372903,-0.061026227317965,0.02698993919645945,0.9936361457176094,-0.1261741071939468,-0.1770398765802383,-0.976082444190979,0,0,0,-1,-1,16336.74327125,unknown,2,2021-04-05 21:54:29.709 -0400,2021-04-05 19:23:45.401 -0400,796,1.436661,0,0,588.679,0,0,2021-04-05 21:54:32.276 -0400,639366880.0037702,0,-2.36,98.19456,1,0.63
2021-04-05 21:54:41.419 -0400,0,0,0,0,0,0,0,0,0,16348.4380185,-0.1218109130859375,-0.1777191162109375,-0.9732513427734375,16348.4179075,0.06744322650583143,-0.1311580714609264,0.1737903816030235,-0.08241972327232361,-0.07673390954732895,0.09437957406044006,0.01687383651733398,0.006000936031341553,-0.01098030805587769,XArbitraryZVertical,0.08875118053828367,-0.06232795290522184,0.02783179263727807,0.9937122155608783,-0.1288122981786728,-0.1729168742895126,-0.9764769077301025,0,0,0,-1,-1,16336.74327125,unknown,2,2021-04-05 21:54:29.709 -0400,2021-04-05 19:23:45.401 -0400,796,1.436661,0,0,588.679,0,0,2021-04-05 21:54:32.276 -0400,639366880.0037702,0,-2.36,98.19456,1,0.63
2021-04-05 21:54:41.450 -0400,0,0,0,0,0,0,0,0,0,16348.4731855,-0.12762451171875,-0.1822967529296875,-0.9813690185546875,16348.4480585,0.06994867014898051,-0.1337648904219389,0.1716182480783209,-0.06374149769544601,-0.06167736276984215,0.06799082458019257,0.005995169281959534,-0.007460907101631165,0.004522919654846191,XArbitraryZVertical,0.08778829879714829,-0.06355584860170704,0.02903634904074931,0.9936854313302644,-0.1314071416854858,-0.1707770526409149,-0.9765077233314514,0,0,0,-1,-1,16336.74327125,unknown,2,2021-04-05 21:54:29.709 -0400,2021-04-05 19:23:45.401 -0400,796,1.436661,0,0,588.679,0,0,2021-04-05 21:54:32.276 -0400,639366880.0037702,0,-2.36,98.19456,1,0.63
2021-04-05 21:54:41.490 -0400,0,0,0,0,0,0,0,0,0,16348.5084225,-0.118408203125,-0.1868133544921875,-0.9714202880859375,16348.4782405,0.07062117648549938,-0.1350017918558489,0.1693198152038186,-0.07486672699451447,-0.0303373858332634,0.0118548683822155,0.005042850971221924,-0.01378488540649414,-0.004638195037841797,XArbitraryZVertical,0.08668631728207146,-0.06418777766714941,0.02939679580873431,0.9937309923725158,-0.1326673626899719,-0.1685119271278381,-0.9767308235168457,0,0,0,-1,-1,16336.74327125,unknown,2,2021-04-05 21:54:29.709 -0400,2021-04-05 19:23:45.401 -0400,796,1.436661,0,0,588.679,0,0,2021-04-05 21:54:32.276 -0400,639366880.0037702,0,-2.36,98.19456,1,0.63
