loggingTime,loggingSample,locationTimestamp_since1970,locationLatitude,locationLongitude,locationAltitude,locationSpeed,locationCourse,locationVerticalAccuracy,locationHorizontalAccuracy,locationFloor,locationHeadingTimestamp_since1970,locationHeadingX,locationHeadingY,locationHeadingZ,locationTrueHeading,locationMagneticHeading,locationHeadingAccuracy,accelerometerTimestamp_sinceReboot,accelerometerAccelerationX,accelerometerAccelerationY,accelerometerAccelerationZ,gyroTimestamp_sinceReboot,gyroRotationX,gyroRotationY,gyroRotationZ,magnetometerTimestamp_sinceReboot,magnetometerX,magnetometerY,magnetometerZ,motionTimestamp_sinceReboot,motionYaw,motionRoll,motionPitch,motionRotationRateX,motionRotationRateY,motionRotationRateZ,motionUserAccelerationX,motionUserAccelerationY,motionUserAccelerationZ,motionAttitudeReferenceFrame,motionQuaternionX,motionQuaternionY,motionQuaternionZ,motionQuaternionW,motionGravityX,motionGravityY,motionGravityZ,motionMagneticFieldX,motionMagneticFieldY,motionMagneticFieldZ,motionHeading,motionMagneticFieldCalibrationAccuracy,activityTimestamp_sinceReboot,activity,activityActivityConfidence,activityActivityStartDate,pedometerStartDate,pedometerNumberofSteps,pedometerAverageActivePace,pedometerCurrentPace,pedometerCurrentCadence,pedometerDistance,pedometerFloorAscended,pedometerFloorDescended,pedometerEndDate,altimeterTimestamp_sinceReboot,altimeterReset,altimeterRelativeAltitude,altimeterPressure,IP_Timestamp_since1970,IP_en0,IP_pdp_ip0,deviceID,deviceOrientationTimeStamp_since1970,deviceOrientation,batteryTimeStamp_since1970,batteryState,batteryLevel,avAudioRecorder_Timestamp_since1970,avAudioRecorderPeakPower,avAudioRecorderAveragePower,label
1617672463.101898,1,0,0,0,0,0,0,0,0,0,1617672463.09205,-17.45454406738281,-2.929500579833984,-33.20336151123047,36.15226364135742,43.18183517456055,16.94458198547363,1046665.561817042,0.0585174560546875,-0.110107421875,-1.0203857421875,1046665.530686042,0.1185932233929634,0.09199091047048569,-0.1207178980112076,1046665.531394042,-6.158905029296875,32.14437866210938,-104.4805908203125,1046665.528196042,-1.493778941407836,0.02760165394083105,0.06593099209322367,0.1538114547729492,0.08793607354164124,-0.1225069016218185,0.004673222079873085,-0.02759210020303726,0.007472336292266846,2,0.03355391209844257,-0.01226793397960294,-0.6785919858209437,0.7336460963063581,0.02753818780183792,-0.06588323414325714,-0.9974472522735596,-17.6086597442627,-2.524406433105469,-33.35166931152344,-1,2,1046665.528912042,1,2,1617672463.062319,1617670944.349944,97,1.562887,0,0,65.01641,0,0,1617672335.235306,1046662.835482,0,-1.469116,98.15584,0,0,0,0,0,1,1617672463.093537,1,0.14,1617672463.064248,-15.07143,-27.9513,0
1617672463.119713,2,0,0,0,0,0,0,0,0,0,1617672463.110085,-17.40801620483398,-2.899969100952148,-33.20341491699219,36.03211975097656,43.06169128417969,16.94462966918945,1046665.595438042,0.016571044921875,-0.0554351806640625,-0.88385009765625,1046665.564307042,-0.3181998133659363,-0.2470667809247971,0.03463228046894073,1046665.591386042,-6.065902709960938,31.97946166992188,-104.4214019775391,1046665.528196042,-1.493778941407836,0.02760165394083105,0.06593099209322367,0.1538114547729492,0.08793607354164124,-0.1225069016218185,0.004673222079873085,-0.02759210020303726,0.007472336292266846,2,0.03355391209844257,-0.01226793397960294,-0.6785919858209437,0.7336460963063581,0.02753818780183792,-0.06588323414325714,-0.9974472522735596,-17.6086597442627,-2.524406433105469,-33.35166931152344,-1,2,1046665.528912042,1,2,1617672463.062319,1617670944.349944,97,1.562887,0,0,65.01641,0,0,1617672335.235306,1046662.835482,0,-1.469116,98.15584,0,0,0,0,0,1,1617672463.093537,1,0.14,1617672463.115881,-15.07143,-29.01451,0
1617672463.159528,3,0,0,0,0,0,0,0,0,0,1617672463.14994,-17.4874153137207,-2.357772827148438,-33.16587066650391,35.83332824707031,42.86289978027344,16.94472503662109,1046665.629061042,0.0322418212890625,-0.044036865234375,-0.9430084228515625,1046665.597930042,0.0955483615398407,0.4485777914524078,0.09852177649736404,1046665.591386042,-6.065902709960938,31.97946166992188,-104.4214019775391,1046665.587968042,-1.492847105332247,0.02574597202678492,0.05509850631741624,-0.0722615122795105,0.2351703196763992,0.1383254677057266,-0.008278416469693184,0.001512285321950912,0.1109293103218079,2,0.02895770383185593,-0.009256012098869013,-0.678443348809791,0.7340235379373428,0.02570406161248684,-0.05507063120603561,-0.9981515407562256,-17.47635269165039,-2.76860237121582,-33.24188232421875,-1,2,1046665.528912042,1,2,1617672463.062319,1617670944.349944,97,1.562887,0,0,65.01641,0,0,1617672335.235306,1046662.835482,0,-1.469116,98.15584,0,0,0,0,0,1,1617672463.093537,1,0.14,1617672463.129985,-15.07143,-29.01451,0
1617672463.189867,4,0,0,0,0,0,0,0,0,0,1617672463.169862,-17.0833625793457,-2.617591857910156,-33.39495849609375,35.86050796508789,42.89007949829102,16.94477272033691,1046665.662682042,0.0574951171875,-0.0794677734375,-1.027816772460938,1046665.631551042,0.6681255698204041,0.763245165348053,0.0113173695281148,1046665.651381042,-5.279495239257812,31.82827758789062,-104.6210632324219,1046665.647740042,-1.490968066061771,0.06231978398350554,0.07994672650314057,0.7952274680137634,0.7484621405601501,-0.03726346045732498,-0.01541904732584953,0.006527848541736603,-0.01684778928756714,2,0.05046504791141723,-0.004221610032414298,-0.676541850305064,0.7346609394703307,0.06208052858710289,-0.0798615887761116,-0.9948709011077881,-16.82136535644531,-2.796390533447266,-33.43923187255859,-1,2,1046665.528912042,1,2,1617672463.062319,1617670944.349944,97,1.562887,0,0,65.01641,0,0,1617672335.235306,1046662.835482,0,-1.469116,98.15584,0,0,0,0,0,1,1617672463.093537,1,0.14,1617672463.163139,-15.07143,-29.98493,0
1617672463.22389,5,0,0,0,0,0,0,0,0,0,1617672463.209779,-16.08432769775391,-3.551385879516602,-34.24166870117188,36.0971794128418,43.12675094604492,16.94486808776855,1046665.696304042,0.1079864501953125,-0.0999755859375,-1.093505859375,1046665.665172042,0.7157876491546631,0.6089019775390625,-0.06835748255252838,1046665.651381042,-5.279495239257812,31.82827758789062,-104.6210632324219,1046665.647740042,-1.490968066061771,0.06231978398350554,0.07994672650314057,0.7952274680137634,0.7484621405601501,-0.03726346045732498,-0.01541904732584953,0.006527848541736603,-0.01684778928756714,2,0.05046504791141723,-0.004221610032414298,-0.676541850305064,0.7346609394703307,0.06208052858710289,-0.0798615887761116,-0.9948709011077881,-16.82136535644531,-2.796390533447266,-33.43923187255859,-1,2,1046665.528912042,1,2,1617672463.062319,1617670944.349944,97,1.562887,0,0,65.01641,0,0,1617672335.235306,1046662.835482,0,-1.469116,98.15584,0,0,0,0,0,1,1617672463.093537,1,0.14,1617672463.197351,-15.07143,-28.45499,0
1617672463.259585,6,0,0,0,0,0,0,0,0,0,1617672463.250189,-15.61789321899414,-4.213752746582031,-34.50144958496094,36.19436264038086,43.22393417358398,16.94496154785156,1046665.729927042,0.0772705078125,-0.0873565673828125,-1.02545166015625,1046665.698796042,0.01966078579425812,-0.05730350315570831,-0.04936834797263145,1046665.711369042,-4.162582397460938,30.49847412109375,-105.667724609375,1046665.707513042,-1.496099952571578,0.08343263504706074,0.1054633567099061,-0.1862833201885223,-0.2337089627981186,-0.04241006076335907,0.01952899247407913,0.009885266423225403,-0.07694739103317261,2,0.06692990089006814,-0.00529344196368018,-0.6770629521449307,0.7328561238909399,0.08287285268306732,-0.1052679643034935,-0.9909847378730774,-15.64559745788574,-4.157966613769531,-34.51203155517578,-1,2,1046665.528912042,1,2,1617672463.062319,1617670944.349944,97,1.562887,0,0,65.01641,0,0,1617672335.235306,1046662.835482,0,-1.469116,98.15584,0,0,0,0,0,1,1617672463.093537,1,0.14,1617672463.230558,-10.85564,-28.45482,0
1617672463.289243,7,0,0,0,0,0,0,0,0,0,1617672463.269638,-15.63143539428711,-4.26386833190918,-34.41908264160156,36.2346076965332,43.26417922973633,16.94500923156738,1046665.763548042,0.0430145263671875,-0.0755157470703125,-0.965789794921875,1046665.732417042,-0.5372296571731567,-0.4433103203773499,-0.07749266177415848,1046665.711369042,-4.162582397460938,30.49847412109375,-105.667724609375,1046665.707513042,-1.496099952571578,0.08343263504706074,0.1054633567099061,-0.1862833201885223,-0.2337089627981186,-0.04241006076335907,0.01952899247407913,0.009885266423225403,-0.07694739103317261,2,0.06692990089006814,-0.00529344196368018,-0.6770629521449307,0.7328561238909399,0.08287285268306732,-0.1052679643034935,-0.9909847378730774,-15.64559745788574,-4.157966613769531,-34.51203155517578,-1,2,1046665.528912042,1,2,1617672463.062319,1617670944.349944,97,1.562887,0,0,65.01641,0,0,1617672335.235306,1046662.835482,0,-1.469116,98.15584,0,0,0,0,0,1,1617672463.093537,1,0.14,1617672463.272021,-10.85564,-29.68397,0
1617672463.333822,8,0,0,0,0,0,0,0,0,0,1617672463.329426,-16.50828742980957,-3.03034782409668,-34.09261322021484,36.52422332763672,43.55379486083984,16.94515419006348,1046665.797171042,0.0436859130859375,-0.069000244140625,-0.95355224609375,1046665.766038042,-0.4928144812583923,-0.2574568390846252,-0.1134820878505707,1046665.771359042,-4.685211181640625,31.08250427246094,-105.1595001220703,1046665.767285042,-1.498742134577905,0.06102168153778476,0.07551219840892001,-0.4878837168216705,-0.2463183552026749,-0.1109551936388016,-0.02029784023761749,0.006836935877799988,0.04213887453079224,2,0.0483877625250581,-0.003382428059524288,-0.6795331279395169,0.7320395531030709,0.06081003323197365,-0.07544045895338058,-0.9952943921089172,-16.08897399902344,-3.708194732666016,-34.05610656738281,-1,2,1046665.528912042,1,2,1617672463.062319,1617670944.349944,97,1.562887,0,0,65.01641,0,0,1617672335.235306,1046662.835482,0,-1.469116,98.15584,0,0,0,0,0,1,1617672463.093537,1,0.14,1617672463.297374,-10.85564,-30.09183,0
1617672463.358912,9,0,0,0,0,0,0,0,0,0,1617672463.349479,-16.49750900268555,-3.056087493896484,-34.05912780761719,36.63143157958984,43.66100311279297,16.9452018737793,1046665.830792042,0.0716705322265625,-0.090728759765625,-1.025039672851562,1046665.799661042,0.007600395474582911,0.1256828308105469,-0.1099832281470299,1046665.831345042,-4.989486694335938,31.55560302734375,-105.0913238525391,1046665.767285042,-1.498742134577905,0.06102168153778476,0.07551219840892001,-0.4878837168216705,-0.2463183552026749,-0.1109551936388016,-0.02029784023761749,0.006836935877799988,0.04213887453079224,2,0.0483877625250581,-0.003382428059524288,-0.6795331279395169,0.7320395531030709,0.06081003323197365,-0.07544045895338058,-0.9952943921089172,-16.08897399902344,-3.708194732666016,-34.05610656738281,-1,2,1046665.528912042,1,2,1617672463.062319,1617670944.349944,97,1.562887,0,0,65.01641,0,0,1617672335.235306,1046662.835482,0,-1.469116,98.15584,0,0,0,0,0,1,1617672463.093537,1,0.14,1617672463.346679,-10.85564,-25.89086,0
1617672463.391485,10,0,0,0,0,0,0,0,0,0,1617672463.389113,-16.31528091430664,-3.28468132019043,-34.03582000732422,36.71279144287109,43.74236297607422,16.94529724121094,1046665.864414042,0.07879638671875,-0.0822906494140625,-1.032821655273438,1046665.833282042,0.0950452908873558,0.115882396697998,-0.0420537106692791,1046665.831345042,-4.989486694335938,31.55560302734375,-105.0913238525391,1046665.827057042,-1.504350706567368,0.06386935426160037,0.0691027007558644,0.09472151845693588,0.1407805979251862,-0.05119031667709351,0.01152181625366211,-0.0207502543926239,-0.0390276312828064,2,0.04701362913008247,-0.000288787516668991,-0.6816675017099263,0.7301500084374548,0.06367360800504684,-0.0690477192401886,-0.9955792427062988,-16.4471549987793,-3.11625862121582,-33.96468353271484,-1,2,1046665.528912042,1,2,1617672463.062319,1617670944.349944,97,1.562887,0,0,65.01641,0,0,1617672335.235306,1046662.835482,0,-1.469116,98.15584,0,0,0,0,0,1,1617672463.093537,1,0.14,1617672463.36468,-10.85564,-25.89086,0
1617672463.428926,11,0,0,0,0,0,0,0,0,0,1617672463.409027,-16.38771057128906,-3.09846305847168,-34.08709716796875,36.72289276123047,43.75246429443359,16.94534492492676,1046665.898037042,0.0667877197265625,-0.080108642578125,-0.99920654296875,1046665.866906042,-0.01182390283793211,-0.1013934686779976,-0.01334723085165024,1046665.891333042,-4.93853759765625,31.49497985839844,-105.1140289306641,1046665.886830042,-1.505656699627213,0.06176347377480725,0.06996887367276151,0.009166383184492588,-0.09314529597759247,-0.00197569583542645,0.006023358553647995,-0.00973907858133316,-0.004165768623352051,2,0.04661053712129185,-0.001383945809818109,-0.6821732259540513,0.729702121566552,0.06157318502664566,-0.06991180032491684,-0.9956510663032532,-16.37945747375488,-3.171688079833984,-33.98888397216797,-1,2,1046665.528912042,1,2,1617672463.062319,1617670944.349944,97,1.562887,0,0,65.01641,0,0,1617672335.235306,1046662.835482,0,-1.469116,98.15584,0,0,0,0,0,1,1617672463.093537,1,0.14,1617672463.401555,-10.85564,-26.66263,0
1617672463.463197,12,0,0,0,0,0,0,0,0,0,1617672463.449147,-16.51393508911133,-3.101110458374023,-34.03279876708984,36.71025848388672,43.73983001708984,16.94539642333984,1046665.931658042,0.061798095703125,-0.074676513671875,-0.999755859375,1046665.900527042,0.0347830131649971,-0.06328549236059189,0.006724481470882893,1046665.891333042,-4.93853759765625,31.49497985839844,-105.1140289306641,1046665.886830042,-1.505656699627213,0.06176347377480725,0.06996887367276151,0.009166383184492588,-0.09314529597759247,-0.00197569583542645,0.006023358553647995,-0.00973907858133316,-0.004165768623352051,2,0.04661053712129185,-0.001383945809818109,-0.6821732259540513,0.729702121566552,0.06157318502664566,-0.06991180032491684,-0.9956510663032532,-16.37945747375488,-3.171688079833984,-33.98888397216797,-1,2,1046665.528912042,1,2,1617672463.062319,1617670944.349944,97,1.562887,0,0,65.01641,0,0,1617672335.235306,1046662.835482,0,-1.469116,98.15584,0,0,0,0,0,1,1617672463.093537,1,0.14,1617672463.463178,-10.85564,-27.11001,0
1617672463.488815,13,0,0,0,0,0,0,0,0,0,1617672463.468855,-16.46832275390625,-3.285177230834961,-34.05242156982422,36.7041015625,43.73367309570312,16.94540596008301,1046665.965279042,0.0570831298828125,-0.08465576171875,-1.001846313476562,1046665.934148042,0.05802495405077934,-0.02154231071472168,0.006483465433120728,1046665.951324042,-5.030776977539062,31.43043518066406,-105.0115814208984,1046665.946602042,-1.505279388546197,0.05958344814358528,0.07256753276883433,0.05533753335475922,-0.00817293394356966,0.01106130331754684,-0.001743659377098083,-0.009222216904163361,-0.002723276615142822,2,0.04681373650318045,-0.003058900058073858,-0.68202608847112,0.7298216793479047,0.05939147621393204,-0.07250385731458664,-0.9955982565879822,-16.46838760375977,-3.271003723144531,-33.90572357177734,-1,2,1046665.528912042,1,2,1617672463.062319,1617670944.349944,97,1.562887,0,0,65.01641,0,0,1617672335.235306,1046662.835482,0,-1.469116,98.15584,0,0,0,0,0,1,1617672463.093537,1,0.14,1617672463.463178,-10.85564,-27.11001,0
1617672463.528042,14,0,0,0,0,0,0,0,0,0,1617672463.508777,-16.45893096923828,-3.365329742431641,-34.00080871582031,36.67044830322266,43.70001983642578,16.94543075561523,1046665.998902042,0.0614471435546875,-0.0770263671875,-1.01519775390625,1046665.967771042,0.07606147974729538,0.01029125321656466,0.02039209008216858,1046665.951324042,-5.030776977539062,31.43043518066406,-105.0115814208984,1046665.946602042,-1.505279388546197,0.05958344814358528,0.07256753276883433,0.05533753335475922,-0.00817293394356966,0.01106130331754684,-0.001743659377098083,-0.009222216904163361,-0.002723276615142822,2,0.04681373650318045,-0.003058900058073858,-0.68202608847112,0.7298216793479047,0.05939147621393204,-0.07250385731458664,-0.9955982565879822,-16.46838760375977,-3.271003723144531,-33.90572357177734,-1,2,1046665.528912042,1,2,1617672463.062319,1617670944.349944,97,1.562887,0,0,65.01641,0,0,1617672335.235306,1046662.835482,0,-1.469116,98.15584,0,0,0,0,0,1,1617672463.093537,1,0.14,1617672463.497379,-10.85564,-26.60126,0
1617672463.558395,15,0,0,0,0,0,0,0,0,0,1617672463.548988,-16.51411819458008,-3.556222915649414,-33.93470764160156,36.61574172973633,43.64531326293945,16.94544792175293,1046666.032524042,0.055023193359375,-0.0747833251953125,-0.9958648681640625,1046666.001392042,0.07322840392589569,-0.06551056355237961,0.02564038150012493,1046666.011305042,-5.085845947265625,31.17971801757812,-105.1224670410156,1046666.006375042,-1.504059196540555,0.05839246158001483,0.07673749929164173,0.05157747864723206,-0.08008123934268951,0.02607092075049877,-0.0009211897850036621,0.0003377422690391541,-0.008395850658416748,2,0.04792912003827592,-0.004889548585206356,-0.6815109105954282,0.7302204452117025,0.05818754062056541,-0.07666220515966415,-0.9953578114509583,-16.49679183959961,-3.494838714599609,-34.00436401367188,-1,2,1046665.528912042,1,2,1617672463.062319,1617670944.349944,97,1.562887,0,0,65.01641,0,0,1617672335.235306,1046662.835482,0,-1.469116,98.15584,0,0,0,0,0,1,1617672463.093537,1,0.14,1617672463.530847,-10.85564,-27.20329,0
1617672463.597811,16,0,0,0,0,0,0,0,0,0,1617672463.588265,-16.6577205657959,-3.500732421875,-33.90574645996094,36.58024597167969,43.60981750488281,16.94545936584473,1046666.066147042,0.0484771728515625,-0.0806121826171875,-0.9998016357421875,1046666.035014042,-0.03471270576119423,-0.1171639040112495,0.005450957920402288,1046666.071292042,-5.27508544921875,31.21150207519531,-104.8699035644531,1046666.006375042,-1.504059196540555,0.05839246158001483,0.07673749929164173,0.05157747864723206,-0.08008123934268951,0.02607092075049877,-0.0009211897850036621,0.0003377422690391541,-0.008395850658416748,2,0.04792912003827592,-0.004889548585206356,-0.6815109105954282,0.7302204452117025,0.05818754062056541,-0.07666220515966415,-0.9953578114509583,-16.49679183959961,-3.494838714599609,-34.00436401367188,-1,2,1046665.528912042,1,2,1617672463.062319,1617670944.349944,97,1.562887,0,0,65.01641,0,0,1617672335.235306,1046662.835482,0,-1.469116,98.15584,0,0,0,0,0,1,1617672463.093537,1,0.14,1617672463.597529,-10.85564,-27.5606,0
1617672463.633244,17,0,0,0,0,0,0,0,0,0,1617672463.628266,-16.7542896270752,-3.319351196289062,-33.77368927001953,36.53055191040039,43.56012344360352,16.94546699523926,1046666.099768042,0.046539306640625,-0.0755462646484375,-1.002914428710938,1046666.068637042,-0.0321267768740654,-0.07519754767417908,0.02063523791730404,1046666.071292042,-5.27508544921875,31.21150207519531,-104.8699035644531,1046666.066147042,-1.503023387010659,0.05263185687127626,0.07531254160883787,-0.04942461103200912,-0.0804034098982811,0.02305533550679684,-0.006163161247968674,-0.0006405860185623169,-0.006595790386199951,2,0.0454500475536762,-0.006482533539281608,-0.681300035589701,0.7305632173989381,0.05245843529701233,-0.07524136453866959,-0.9957845211029053,-16.69706726074219,-3.488975524902344,-33.76262664794922,-1,2,1046665.528912042,1,2,1617672463.062319,1617670944.349944,97,1.562887,0,0,65.01641,0,0,1617672335.235306,1046662.835482,0,-1.469116,98.15584,0,0,0,0,0,1,1617672463.093537,1,0.14,1617672463.597529,-10.85564,-27.5606,0
1617672463.65774,18,0,0,0,0,0,0,0,0,0,1617672463.648165,-16.83326721191406,-3.244588851928711,-33.76433563232422,36.50752639770508,43.5370979309082,16.94547271728516,1046666.133389042,0.0421142578125,-0.069091796875,-1.003494262695312,1046666.102258042,0.06195258349180222,-0.03788106888532639,0.02556634694337845,1046666.131281042,-5.411270141601562,31.36094665527344,-104.8816070556641,1046666.066147042,-1.503023387010659,0.05263185687127626,0.07531254160883787,-0.04942461103200912,-0.0804034098982811,0.02305533550679684,-0.006163161247968674,-0.0006405860185623169,-0.006595790386199951,2,0.0454500475536762,-0.006482533539281608,-0.681300035589701,0.7305632173989381,0.05245843529701233,-0.07524136453866959,-0.9957845211029053,-16.69706726074219,-3.488975524902344,-33.76262664794922,-1,2,1046665.528912042,1,2,1617672463.062319,1617670944.349944,97,1.562887,0,0,65.01641,0,0,1617672335.235306,1046662.835482,0,-1.469116,98.15584,0,0,0,0,0,1,1617672463.093537,1,0.14,1617672463.646102,-10.85564,-28.4274,0
1617672463.701375,19,0,0,0,0,0,0,0,0,0,1617672463.688012,-16.94005012512207,-3.430368423461914,-33.61862182617188,36.51166534423828,43.54123687744141,16.94548034667969,1046666.167013042,0.0401458740234375,-0.0694580078125,-1.001678466796875,1046666.169503042,0.06120822951197624,-0.04788683354854584,-0.03358006477355957,1046666.131281042,-5.411270141601562,31.36094665527344,-104.8816070556641,1046666.125919042,-1.501828348990368,0.04918124860566517,0.07765779581222822,0.1368587762117386,-0.05934003368020058,0.01530164666473866,-0.007234580814838409,0.008320115506649017,-0.006798088550567627,2,0.04513477821906953,-0.008516581236979614,-0.6808891524373757,0.7309448590814205,0.04901326075196266,-0.07757976651191711,-0.9957806468009949,-16.84445571899414,-3.309164047241211,-33.73075103759766,-1,2,1046665.528912042,1,2,1617672463.062319,1617670944.349944,97,1.562887,0,0,65.01641,0,0,1617672335.235306,1046662.835482,0,-1.469116,98.15584,0,0,0,0,0,1,1617672463.093537,1,0.14,1617672463.701327,-10.85564,-29.39095,0
1617672463.727906,20,0,0,0,0,0,0,0,0,0,1617672463.707821,-16.91867065429688,-3.507158279418945,-33.72059631347656,36.54812240600586,43.57769393920898,16.94548606872559,1046666.200634042,0.0460968017578125,-0.087249755859375,-1.013320922851562,1046666.169503042,0.06120822951197624,-0.04788683354854584,-0.03358006477355957,1046666.191270042,-5.547012329101562,31.07847595214844,-104.7748107910156,1046666.185692042,-1.502735082448945,0.04670011886674494,0.08200082583777489,-0.009360709227621555,-0.052493616938591,-0.02912568673491478,-0.0007955841720104218,-0.006317362189292908,-0.01061129570007324,2,0.04586955019736891,-0.01092569169775477,-0.6811797762639444,0.7305962075647737,0.04652628302574158,-0.08190895617008209,-0.9955532550811768,-16.96586990356445,-3.585969924926758,-33.64190673828125,-1,2,1046665.528912042,1,2,1617672463.062319,1617670944.349944,97,1.562887,0,0,65.01641,0,0,1617672335.235306,1046662.835482,0,-1.469116,98.15584,0,0,0,0,0,1,1617672463.093537,1,0.14,1617672463.701327,-10.85564,-29.39095,0
1617672463.763188,21,0,0,0,0,0,0,0,0,0,1617672463.747808,-17.10201644897461,-3.497690200805664,-33.65907287597656,36.59805297851562,43.62762451171875,16.94549369812012,1046666.234255042,0.0342254638671875,-0.0854949951171875,-0.96630859375,1046666.203124042,-0.03858094662427902,-0.1097786948084831,-0.02296443842351437,1046666.191270042,-5.547012329101562,31.07847595214844,-104.7748107910156,1046666.185692042,-1.502735082448945,0.04670011886674494,0.08200082583777489,-0.009360709227621555,-0.052493616938591,-0.02912568673491478,-0.0007955841720104218,-0.006317362189292908,-0.01061129570007324,2,0.04586955019736891,-0.01092569169775477,-0.6811797762639444,0.7305962075647737,0.04652628302574158,-0.08190895617008209,-0.9955532550811768,-16.96586990356445,-3.585969924926758,-33.64190673828125,-1,2,1046665.528912042,1,2,1617672463.062319,1617670944.349944,97,1.562887,0,0,65.01641,0,0,1617672335.235306,1046663.784587,0,-1.474426,98.15591,0,0,0,0,0,1,1617672463.093537,1,0.14,1617672463.763166,-10.85564,-30.13514,0
1617672463.797446,22,0,0,0,0,0,0,0,0,0,1617672463.78776,-17.13894653320312,-3.50880241394043,-33.32186126708984,36.63667678833008,43.6662483215332,16.94550704956055,1046666.267878042,0.042724609375,-0.088348388671875,-0.9980621337890625,1046666.236747042,-0.04697230085730553,-0.04683195427060127,-0.02772909961640835,1046666.251252042,-5.711395263671875,31.19720458984375,-104.5168304443359,1046666.245464042,-1.504036922041088,0.04121227788365765,0.07823428658427292,-0.05831475555896759,0.005703451577574015,-0.01918393932282925,-0.0044686459004879,-0.01179605722427368,0.02943521738052368,2,0.0426189357611152,-0.0116726681287409,-0.6818582967793619,0.7301483698694458,0.04107458889484406,-0.07815450429916382,-0.9960947632789612,-17.13737487792969,-3.500246047973633,-33.39673614501953,-1,2,1046665.528912042,1,2,1617672463.062319,1617670944.349944,97,1.562887,0,0,65.01641,0,0,1617672335.235306,1046663.784587,0,-1.474426,98.15591,0,0,0,0,0,1,1617672463.093537,1,0.14,1617672463.797371,-10.85564,-30.34431,0
1617672463.826973,23,0,0,0,0,0,0,0,0,0,1617672463.807655,-17.14206123352051,-3.336828231811523,-33.50529479980469,36.62371063232422,43.65328216552734,16.94551277160645,1046666.301499042,0.047271728515625,-0.06268310546875,-1.025054931640625,1046666.270368042,-0.008284028619527817,0.04114770144224167,0.007977232336997986,1046666.251252042,-5.711395263671875,31.19720458984375,-104.5168304443359,1046666.245464042,-1.504036922041088,0.04121227788365765,0.07823428658427292,-0.05831475555896759,0.005703451577574015,-0.01918393932282925,-0.0044686459004879,-0.01179605722427368,0.02943521738052368,2,0.0426189357611152,-0.0116726681287409,-0.6818582967793619,0.7301483698694458,0.04107458889484406,-0.07815450429916382,-0.9960947632789612,-17.13737487792969,-3.500246047973633,-33.39673614501953,-1,2,1046665.528912042,1,2,1617672463.062319,1617670944.349944,97,1.562887,0,0,65.01641,0,0,1617672335.235306,1046663.784587,0,-1.474426,98.15591,0,0,0,0,0,1,1617672463.093537,1,0.14,1617672463.797371,-10.85564,-30.34431,0
1617672463.873101,24,0,0,0,0,0,0,0,0,0,1617672463.867264,-17.1512508392334,-3.278202056884766,-33.56089782714844,36.63908004760742,43.66865158081055,16.94552993774414,1046666.335121375,0.0457763671875,-0.0805816650390625,-0.9950408935546875,1046666.303989042,0.05479666963219643,-0.01616512052714825,-0.003784085623919964,1046666.311234042,-5.654449462890625,31.4075927734375,-104.6859436035156,1046666.305236042,-1.503643108809156,0.0426299273504005,0.07801179821816134,0.04622547328472137,-0.02501513250172138,-0.003747642040252686,0.006279796361923218,0.0181640237569809,-0.02300530672073364,2,0.04302332230905488,-0.01107065803883131,-0.6816888241321032,0.7302923542716251,0.04248740151524544,-0.0779326930642128,-0.9960528612136841,-17.11445617675781,-3.285484313964844,-33.53739929199219,-1,2,1046665.528912042,1,2,1617672463.062319,1617670944.349944,97,1.562887,0,0,65.01641,0,0,1617672335.235306,1046663.784587,0,-1.474426,98.15591,0,0,0,0,0,1,1617672463.093537,1,0.14,1617672463.872937,-10.85564,-30.91892,0
1617672463.897355,25,0,0,0,0,0,0,0,0,0,1617672463.887132,-17.17827606201172,-3.330886840820312,-33.58067321777344,36.6360969543457,43.66566848754883,16.94553565979004,1046666.368743375,0.0449676513671875,-0.0908660888671875,-1.00408935546875,1046666.337611375,0.1012824103236198,0.004789428785443306,-0.008168447762727737,1046666.371218375,-5.679763793945312,31.31285095214844,-104.6354522705078,1046666.305236042,-1.503643108809156,0.0426299273504005,0.07801179821816134,0.04622547328472137,-0.02501513250172138,-0.003747642040252686,0.006279796361923218,0.0181640237569809,-0.02300530672073364,2,0.04302332230905488,-0.01107065803883131,-0.6816888241321032,0.7302923542716251,0.04248740151524544,-0.0779326930642128,-0.9960528612136841,-17.11445617675781,-3.285484313964844,-33.53739929199219,-1,2,1046665.528912042,1,2,1617672463.062319,1617670944.349944,97,1.562887,0,0,65.01641,0,0,1617672335.235306,1046663.784587,0,-1.474426,98.15591,0,0,0,0,0,1,1617672463.093537,1,0.14,1617672463.897279,-10.85564,-30.9172,0
1617672463.932786,26,0,0,0,0,0,0,0,0,0,1617672463.927019,-17.08890533447266,-3.50050163269043,-33.54790496826172,36.61993789672852,43.64950942993164,16.9455451965332,1046666.402364375,0.0465850830078125,-0.090240478515625,-1.00860595703125,1046666.371233375,0.04035061970353127,-0.04502180218696594,0.00686190091073513,1046666.371218375,-5.679763793945312,31.31285095214844,-104.6354522705078,1046666.365008375,-1.504084239408785,0.04124932420639744,0.08292436431752716,0.04793640598654747,-0.04848735779523849,0.01008423138409853,0.002361219376325607,-0.00690758228302002,-0.00361257791519165,2,0.04434077656006215,-0.01326190442920382,-0.6817749801851571,0.7300964846441302,0.04109592363238335,-0.08282935619354248,-0.9957160353660583,-17.13472557067871,-3.368131637573242,-33.50238037109375,-1,2,1046665.528912042,1,2,1617672463.062319,1617670944.349944,97,1.562887,0,0,65.01641,0,0,1617672335.235306,1046663.784587,0,-1.474426,98.15591,0,0,0,0,0,1,1617672463.093537,1,0.14,1617672463.897279,-10.85564,-30.9172,0
1617672463.966437,27,0,0,0,0,0,0,0,0,0,1617672463.947295,-17.15910148620605,-3.563106536865234,-33.57582855224609,36.59492492675781,43.62449645996094,16.94555473327637,1046666.435987375,0.0320587158203125,-0.0856475830078125,-0.991973876953125,1046666.404856375,-0.07338207215070724,-0.09581760317087173,0.01435017678886652,1046666.431199375,-5.832046508789062,31.1767578125,-104.5902252197266,1046666.424780375,-1.503262964550955,0.03666918345472386,0.08000317265139426,-0.04434675723314285,-0.125643327832222,0.02935424447059631,-0.003264173865318298,-0.005760245025157928,0.0001291632652282715,2,0.04172021033843702,-0.01391912901675898,-0.6816350387444263,0.7303693328182119,0.03654370456933975,-0.07991785556077957,-0.9961313605308533,-17.23821067810059,-3.531583786010742,-33.46865081787109,-1,2,1046665.528912042,1,2,1617672463.062319,1617670944.349944,97,1.562887,0,0,65.01641,0,0,1617672335.235306,1046663.784587,0,-1.474426,98.15591,0,0,0,0,0,1,1617672463.093537,1,0.14,1617672463.963981,-10.85564,-26.79797,0
1617672464.00194,28,0,0,0,0,0,0,0,0,0,1617672463.986861,-17.23715209960938,-3.469619750976562,-33.46259307861328,36.52839279174805,43.55796432495117,16.9455680847168,1046666.469608375,0.024658203125,-0.081298828125,-0.980010986328125,1046666.438477375,0.01434032339602709,-0.06431960314512253,0.0300495121628046,1046666.431199375,-5.832046508789062,31.1767578125,-104.5902252197266,1046666.424780375,-1.503262964550955,0.03666918345472386,0.08000317265139426,-0.04434675723314285,-0.125643327832222,0.02935424447059631,-0.003264173865318298,-0.005760245025157928,0.0001291632652282715,2,0.04172021033843702,-0.01391912901675898,-0.6816350387444263,0.7303693328182119,0.03654370456933975,-0.07991785556077957,-0.9961313605308533,-17.23821067810059,-3.531583786010742,-33.46865081787109,-1,2,1046665.528912042,1,2,1617672463.062319,1617670944.349944,97,1.562887,0,0,65.01641,0,0,1617672335.235306,1046663.784587,0,-1.474426,98.15591,0,0,0,0,0,1,1617672463.093537,1,0.14,1617672464.00191,-10.85564,-27.41972,0
1617672464.026646,29,0,0,0,0,0,0,0,0,0,1617672464.00664,-17.29746627807617,-3.479948043823242,-33.34951782226562,36.50590515136719,43.53547668457031,16.9455738067627,1046666.503229375,0.03009033203125,-0.079742431640625,-1.006057739257812,1046666.472098375,0.08141150325536728,0.04109736904501915,0.02072711661458015,1046666.491194375,-5.88116455078125,31.26181030273438,-104.3015594482422,1046666.484552375,-1.501752897677944,0.03605140792255217,0.08272434852817367,0.0453687384724617,0.02161555737257004,0.02159865759313107,-0.006898015737533569,-0.0009881407022476196,-0.01067429780960083,2,0.04251337469381033,-0.01504149398269179,-0.6810405831089645,0.7308558081669962,0.03592034056782722,-0.08263003081083298,-0.9959327578544617,-17.31272888183594,-3.447071075439453,-33.19773101806641,-1,2,1046665.528912042,1,2,1617672463.062319,1617670944.349944,97,1.562887,0,0,65.01641,0,0,1617672335.235306,1046663.784587,0,-1.474426,98.15591,0,0,0,0,0,1,1617672463.093537,1,0.14,1617672464.00191,-10.85564,-27.41972,0
1617672464.066125,30,0,0,0,0,0,0,0,0,0,1617672464.046704,-17.29962539672852,-3.478609085083008,-33.31855773925781,36.46195220947266,43.49152374267578,16.94558334350586,1046666.536853375,0.02899169921875,-0.0780792236328125,-0.9975433349609375,1046666.505721375,0.02056359872221947,-0.004374241922050714,0.01948315463960171,1046666.491194375,-5.88116455078125,31.26181030273438,-104.3015594482422,1046666.484552375,-1.501752897677944,0.03605140792255217,0.08272434852817367,0.0453687384724617,0.02161555737257004,0.02159865759313107,-0.006898015737533569,-0.0009881407022476196,-0.01067429780960083,2,0.04251337469381033,-0.01504149398269179,-0.6810405831089645,0.7308558081669962,0.03592034056782722,-0.08263003081083298,-0.9959327578544617,-17.31272888183594,-3.447071075439453,-33.19773101806641,-1,2,1046665.528912042,1,2,1617672463.062319,1617670944.349944,97,1.562887,0,0,65.01641,0,0,1617672335.235306,1046663.784587,0,-1.474426,98.15591,0,0,0,0,0,1,1617672463.093537,1,0.14,1617672464.064758,-10.85564,-28.02319,0
1617672464.096426,31,0,0,0,0,0,0,0,0,0,1617672464.086372,-17.29814147949219,-3.56110954284668,-33.08342742919922,36.43613815307617,43.4657096862793,16.94559288024902,1046666.570474375,0.028411865234375,-0.0813446044921875,-0.9992218017578125,1046666.539343375,0.02606169506907463,0.00971574429422617,0.009855027310550213,1046666.551184375,-5.875213623046875,31.18397521972656,-104.3198394775391,1046666.544325375,-1.50073532170038,0.03562758208072642,0.08364602842858573,0.01499142870306969,-0.008683869615197182,0.009315739385783672,-0.001132607460021973,0.01122185587882996,-0.01436728239059448,2,0.04271327686143514,-0.01548899076524394,-0.6806585759266532,0.7311906027654833,0.03549550846219063,-0.08354852348566055,-0.9958713054656982,-17.3105297088623,-3.503688812255859,-33.20809936523438,-1,2,1046665.528912042,1,2,1617672463.062319,1617670944.349944,97,1.562887,0,0,65.01641,0,0,1617672335.235306,1046663.784587,0,-1.474426,98.15591,1617672464.09485,587422867,1685438189,0,0,1,1617672463.093537,1,0.14,1617672464.096373,-10.85564,-28.56923,0
1617672464.135758,32,0,0,0,0,0,0,0,0,0,1617672464.126226,-17.32453536987305,-3.509115219116211,-33.38955688476562,36.41919708251953,43.44876861572266,16.94560432434082,1046666.604097375,0.02911376953125,-0.08465576171875,-1.01153564453125,1046666.572964375,0.04233627021312714,0.01596991159021854,0.00957086868584156,1046666.611172375,-5.845260620117188,31.07473754882812,-104.446044921875,1046666.544325375,-1.50073532170038,0.03562758208072642,0.08364602842858573,0.01499142870306969,-0.008683869615197182,0.009315739385783672,-0.001132607460021973,0.01122185587882996,-0.01436728239059448,2,0.04271327686143514,-0.01548899076524394,-0.6806585759266532,0.7311906027654833,0.03549550846219063,-0.08354852348566055,-0.9958713054656982,-17.3105297088623,-3.503688812255859,-33.20809936523438,-1,2,1046665.528912042,1,2,1617672463.062319,1617670944.349944,97,1.562887,0,0,65.01641,0,0,1617672335.235306,1046663.784587,0,-1.474426,98.15591,1617672464.09485,587422867,1685438189,0,0,1,1617672463.093537,1,0.14,1617672464.130758,-10.85564,-28.8156,0
1617672464.172693,33,0,0,0,0,0,0,0,0,0,1617672464.166208,-17.26608085632324,-3.623439788818359,-33.31636810302734,36.41906356811523,43.44863510131836,16.94561767578125,1046666.637718375,0.035614013671875,-0.0963134765625,-1.007125854492188,1046666.606587375,0.04934997111558914,0.02375539764761925,-0.0007755124825052917,1046666.611172375,-5.845260620117188,31.07473754882812,-104.446044921875,1046666.604097375,-1.500316040523122,0.03556451110198119,0.08520346063927024,0.03406683728098869,0.02285101264715195,0.00260204984806478,-0.003979556262493134,-0.003019101917743683,-0.0173954963684082,2,0.04326376357669191,-0.01603386799021588,-0.6804741037284802,0.7313180591868016,0.03542802855372429,-0.08510040491819382,-0.9957423210144043,-17.29474639892578,-3.589200973510742,-33.31249237060547,-1,2,1046665.528912042,1,2,1617672463.062319,1617670944.349944,97,1.562887,0,0,65.01641,0,0,1617672335.235306,1046663.784587,0,-1.474426,98.15591,1617672464.09485,587422867,1685438189,0,0,1,1617672463.093537,1,0.14,1617672464.172537,-11.41291,-28.95576,0
1617672464.195684,34,0,0,0,0,0,0,0,0,0,1617672464.185979,-17.27456092834473,-3.695173263549805,-33.36630249023438,36.41203689575195,43.44160842895508,16.94562530517578,1046666.671339375,0.03466796875,-0.0983734130859375,-0.9981231689453125,1046666.640208375,0.0835857093334198,0.01296772994101048,0.001374457380734384,1046666.671164375,-5.814788818359375,30.94424438476562,-104.412353515625,1046666.604097375,-1.500316040523122,0.03556451110198119,0.08520346063927024,0.03406683728098869,0.02285101264715195,0.00260204984806478,-0.003979556262493134,-0.003019101917743683,-0.0173954963684082,2,0.04326376357669191,-0.01603386799021588,-0.6804741037284802,0.7313180591868016,0.03542802855372429,-0.08510040491819382,-0.9957423210144043,-17.29474639892578,-3.589200973510742,-33.31249237060547,-1,2,1046665.528912042,1,2,1617672463.062319,1617670944.349944,97,1.562887,0,0,65.01641,0,0,1617672335.235306,1046663.784587,0,-1.474426,98.15591,1617672464.09485,587422867,1685438189,0,0,1,1617672463.093537,1,0.14,1617672464.172537,-11.41291,-28.95576,0
1617672464.235451,35,0,0,0,0,0,0,0,0,0,1617672464.225824,-17.1537971496582,-3.867172241210938,-33.22898101806641,36.37964630126953,43.40921783447266,16.94564056396484,1046666.704963375,0.0353851318359375,-0.093902587890625,-1.000961303710938,1046666.673831375,0.0531630851328373,0.01995985954999924,0.01215679757297039,1046666.671164375,-5.814788818359375,30.94424438476562,-104.412353515625,1046666.663869375,-1.50015675143122,0.03598586103077556,0.08817106692279028,0.04830522835254669,0.02193113416433334,0.01113112736493349,-0.001277074217796326,-0.01024024933576584,-0.002484738826751709,2,0.04449200374224279,-0.01688757223514223,-0.6803433884228125,0.7313468408699429,0.03583833575248718,-0.08805686980485916,-0.9954705238342285,-17.25872421264648,-3.735509872436523,-33.28176879882812,-1,2,1046665.528912042,1,2,1617672463.062319,1617670944.349944,97,1.562887,0,0,65.01641,0,0,1617672335.235306,1046663.784587,0,-1.474426,98.15591,1617672464.09485,587422867,1685438189,0,0,1,1617672463.093537,1,0.14,1617672464.230617,-13.08475,-29.91178,0
1617672464.265401,36,0,0,0,0,0,0,0,0,0,1617672464.245945,-17.10601806640625,-3.923233032226562,-32.99053955078125,36.36592483520508,43.3954963684082,16.94564628601074,1046666.738584375,0.028656005859375,-0.0880126953125,-0.974365234375,1046666.707453375,0.05609655752778053,-0.01824078895151615,0.01170406024903059,1046666.731143375,-5.646484375,30.72096252441406,-104.1569366455078,1046666.723642375,-1.499395197423627,0.03541637608976189,0.09097358673683927,0.05258353799581528,-0.03628706932067871,0.0009593424038030207,-0.003661483526229858,0.003934085369110107,0.01307779550552368,2,0.04532841677363761,-0.01803350155261876,-0.6800166208419389,0.7315718920346439,0.03526254743337631,-0.0908481553196907,-0.9952402710914612,-17.09035301208496,-3.960151672363281,-32.99210357666016,-1,2,1046665.528912042,1,2,1617672463.062319,1617670944.349944,97,1.562887,0,0,65.01641,0,0,1617672335.235306,1046663.784587,0,-1.474426,98.15591,1617672464.09485,587422867,1685438189,0,0,1,1617672463.093537,1,0.14,1617672464.264267,-13.64203,-26.00877,0
1617672464.305943,37,0,0,0,0,0,0,0,0,0,1617672464.285737,-17.19803237915039,-3.813713073730469,-33.39739990234375,36.37417984008789,43.40375137329102,16.94565963745117,1046666.772205375,0.0310821533203125,-0.105438232421875,-0.988525390625,1046666.741074375,0.05416789650917053,0.007345264777541161,-0.00669278996065259,1046666.731143375,-5.646484375,30.72096252441406,-104.1569366455078,1046666.723642375,-1.499395197423627,0.03541637608976189,0.09097358673683927,0.05258353799581528,-0.03628706932067871,0.0009593424038030207,-0.003661483526229858,0.003934085369110107,0.01307779550552368,2,0.04532841677363761,-0.01803350155261876,-0.6800166208419389,0.7315718920346439,0.03526254743337631,-0.0908481553196907,-0.9952402710914612,-17.09035301208496,-3.960151672363281,-32.99210357666016,-1,2,1046665.528912042,1,2,1617672463.062319,1617670944.349944,97,1.562887,0,0,65.01641,0,0,1617672335.235306,1046663.784587,0,-1.474426,98.15591,1617672464.09485,587422867,1685438189,0,0,1,1617672463.093537,1,0.14,1617672464.30591,-14.75659,-27.04344,0
1617672464.335116,38,0,0,0,0,0,0,0,0,0,1617672464.325631,-17.09163665771484,-3.854278564453125,-33.34635925292969,36.32872772216797,43.35829925537109,16.94567489624023,1046666.805828375,0.036590576171875,-0.091064453125,-1.00811767578125,1046666.774697375,-0.009883789345622063,0.04452778771519661,0.01944027654826641,1046666.791133375,-5.694595336914062,30.80465698242188,-104.4103240966797,1046666.783414375,-1.499166176438518,0.03625991270275261,0.09223632970413626,-0.02850580029189587,0.02176292054355145,0.02445347234606743,0.0008895471692085266,-0.005199700593948364,-0.01372486352920532,2,0.04607847618088941,-0.0181497483403931,-0.6798855940270963,0.7316441644574436,0.03609786927700043,-0.09210560470819473,-0.9950947165489197,-17.14546966552734,-3.848024368286133,-33.28112030029297,-1,2,1046665.528912042,1,2,1617672463.062319,1617670944.349944,97,1.562887,0,0,65.01641,0,0,1617672335.235306,1046663.784587,0,-1.474426,98.15591,1617672464.09485,587422867,1685438189,0,0,1,1617672463.093537,1,0.14,1617672464.32996,-9.400735,-27.64281,0
1617672464.36491,39,0,0,0,0,0,0,0,0,0,1617672464.345519,-17.11725616455078,-3.738649368286133,-33.40880584716797,36.30153656005859,43.33110809326172,16.94568252563477,1046666.839449375,0.0331268310546875,-0.0907745361328125,-1.00341796875,1046666.808318375,-0.03145752474665642,-0.009190568700432777,0.01835903339087963,1046666.791133375,-5.694595336914062,30.80465698242188,-104.4103240966797,1046666.783414375,-1.499166176438518,0.03625991270275261,0.09223632970413626,-0.02850580029189587,0.02176292054355145,0.02445347234606743,0.0008895471692085266,-0.005199700593948364,-0.01372486352920532,2,0.04607847618088941,-0.0181497483403931,-0.6798855940270963,0.7316441644574436,0.03609786927700043,-0.09210560470819473,-0.9950947165489197,-17.14546966552734,-3.848024368286133,-33.28112030029297,-1,2,1046665.528912042,1,2,1617672463.062319,1617670944.349944,97,1.562887,0,0,65.01641,0,0,1617672335.235306,1046663.784587,0,-1.474426,98.15591,1617672464.09485,587422867,1685438189,0,0,1,1617672463.093537,1,0.14,1617672464.363876,-9.400735,-28.3854,0
1617672464.411199,40,0,0,0,0,0,0,0,0,0,1617672464.405223,-17.16184616088867,-3.688987731933594,-33.36750030517578,36.23538208007812,43.26495361328125,16.94570159912109,1046666.873073375,0.0316314697265625,-0.0934906005859375,-1.001296997070312,1046666.841939375,-0.01650920137763023,-0.00521766534075141,0.01418399624526501,1046666.851119375,-5.58935546875,30.84608459472656,-104.2044982910156,1046666.843186375,-1.49776049908499,0.03540408717413206,0.09017209732858078,-0.02561086602509022,-0.01077079307287931,0.01779824309051037,-0.002537928521633148,-0.002494610846042633,-0.009996891021728516,2,0.04504600486306344,-0.01772819482002445,-0.6794362605948242,0.7321358695427596,0.0352528840303421,-0.09004995226860046,-0.9953131079673767,-17.06010437011719,-3.807268142700195,-33.11534881591797,-1,2,1046665.528912042,1,2,1617672463.062319,1617670944.349944,97,1.562887,0,0,65.01641,0,0,1617672335.235306,1046663.784587,0,-1.474426,98.15591,1617672464.09485,587422867,1685438189,0,0,1,1617672463.093537,1,0.14,1617672464.397307,-9.400735,-28.51156,0
1617672464.434656,41,0,0,0,0,0,0,0,0,0,1617672464.424941,-17.21088218688965,-3.759199142456055,-33.48381805419922,36.22436141967773,43.25393295288086,16.94570922851562,1046666.906694375,0.0252532958984375,-0.0865936279296875,-1.000625610351562,1046666.875563375,0.02825587242841721,0.01255760341882706,0.01769351027905941,1046666.911114375,-5.648666381835938,30.82991027832031,-104.6158447265625,1046666.843186375,-1.49776049908499,0.03540408717413206,0.09017209732858078,-0.02561086602509022,-0.01077079307287931,0.01779824309051037,-0.002537928521633148,-0.002494610846042633,-0.009996891021728516,2,0.04504600486306344,-0.01772819482002445,-0.6794362605948242,0.7321358695427596,0.0352528840303421,-0.09004995226860046,-0.9953131079673767,-17.06010437011719,-3.807268142700195,-33.11534881591797,-1,2,1046665.528912042,1,2,1617672463.062319,1617670944.349944,97,1.562887,0,0,65.01641,0,0,1617672335.235306,1046663.784587,0,-1.474426,98.15591,1617672464.09485,587422867,1685438189,0,0,1,1617672463.093537,1,0.14,1617672464.430702,-9.400735,-29.01968,0
1617672464.472503,42,0,0,0,0,0,0,0,0,0,1617672464.465046,-17.15598678588867,-3.868560791015625,-33.55096435546875,36.2522087097168,43.28178024291992,16.94572257995605,1046666.940315375,0.028106689453125,-0.088104248046875,-1.001815795898438,1046666.909184375,0.01550811994820833,0.01304948888719082,-0.008842493407428265,1046666.911114375,-5.648666381835938,30.82991027832031,-104.6158447265625,1046666.902959375,-1.496933646705935,0.03550787170149174,0.09069454177289586,0.00706322118639946,0.01566516235470772,-0.002573421224951744,-0.009887479245662689,0.005014225840568542,-0.006965458393096924,2,0.04527961107733379,-0.01784927617496588,-0.6791197533311705,0.7324120569595849,0.03535450622439384,-0.09057025611400604,-0.9952623248100281,-17.12175941467285,-3.835525512695312,-33.46079254150391,-1,2,1046665.528912042,1,2,1617672463.062319,1617670944.349944,97,1.562887,0,0,65.01641,0,0,1617672335.235306,1046663.784587,0,-1.474426,98.15591,1617672464.09485,587422867,1685438189,0,0,1,1617672463.093537,1,0.14,1617672464.472355,-9.400735,-29.52566,0
1617672464.504907,43,0,0,0,0,0,0,0,0,0,1617672464.484887,-17.2150993347168,-3.854839324951172,-33.59354400634766,36.28103256225586,43.31060409545898,16.94572639465332,1046666.973938375,0.031402587890625,-0.0914764404296875,-0.9941253662109375,1046666.976428375,0.006473878398537636,0.03698438405990601,-0.03347779810428619,1046666.971104375,-5.703384399414062,30.79258728027344,-104.5188140869141,1046666.962731375,-1.498049476105224,0.03541330867149958,0.09035991143280238,-0.01149176526814699,0.01794466562569141,-0.02628815732896328,-0.004438605159521103,-0.001102112233638763,0.001674115657806396,2,0.04511521520807307,-0.01779524661753178,-0.6795377263559645,0.7320359105755465,0.03526146337389946,-0.09023699909448624,-0.9952958822250366,-17.22721862792969,-3.808198928833008,-33.50920104980469,-1,2,1046665.528912042,1,2,1617672463.062319,1617670944.349944,97,1.562887,0,0,65.01641,0,0,1617672335.235306,1046663.784587,0,-1.474426,98.15591,1617672464.09485,587422867,1685438189,0,0,1,1617672463.093537,1,0.14,1617672464.497437,-9.400735,-21.54415,0
1617672464.543163,44,0,0,0,0,0,0,0,0,0,1617672464.524808,-17.15743255615234,-3.906562805175781,-33.38710021972656,36.34809875488281,43.37767028808594,16.94573974609375,1046667.007559375,0.0380096435546875,-0.0917205810546875,-1.008514404296875,1046666.976428375,0.006473878398537636,0.03698438405990601,-0.03347779810428619,1046666.971104375,-5.703384399414062,30.79258728027344,-104.5188140869141,1046666.962731375,-1.498049476105224,0.03541330867149958,0.09035991143280238,-0.01149176526814699,0.01794466562569141,-0.02628815732896328,-0.004438605159521103,-0.001102112233638763,0.001674115657806396,2,0.04511521520807307,-0.01779524661753178,-0.6795377263559645,0.7320359105755465,0.03526146337389946,-0.09023699909448624,-0.9952958822250366,-17.22721862792969,-3.808198928833008,-33.50920104980469,-1,2,1046665.528912042,1,2,1617672463.062319,1617670944.349944,97,1.562887,0,0,65.01641,0,0,1617672335.235306,1046663.784587,0,-1.474426,98.15591,1617672464.09485,587422867,1685438189,0,0,1,1617672463.093537,1,0.14,1617672464.543134,-9.400735,-23.094,0
1617672464.564636,45,0,0,0,0,0,0,0,0,0,1617672464.544706,-17.17235946655273,-3.853021621704102,-33.43527221679688,36.38972854614258,43.4193000793457,16.94574737548828,1046667.041180375,0.0376434326171875,-0.10247802734375,-0.995697021484375,1046667.010049375,0.04706444591283798,0.01666100136935711,-0.03887922316789627,1046667.031092375,-5.762710571289062,30.80570983886719,-104.5051422119141,1046667.022503375,-1.500017696420031,0.03653098469604493,0.09095036121428465,0.03832197934389114,0.01488818228244781,-0.04018991440534592,0.001012232154607773,-0.006556563079357147,-0.002661287784576416,2,0.04569341621765513,-0.01763209962143553,-0.6802194375934075,0.7313704585050677,0.03637190535664558,-0.09082502126693726,-0.9952024221420288,-17.18969535827637,-3.845363616943359,-33.40945434570312,-1,2,1046665.528912042,1,2,1617672463.062319,1617670944.349944,97,1.562887,0,0,65.01641,0,0,1617672335.235306,1046663.784587,0,-1.474426,98.15591,1617672464.09485,587422867,1685438189,0,0,1,1617672463.093537,1,0.14,1617672464.564006,-9.400735,-23.7541,0
1617672464.609588,46,0,0,0,0,0,0,0,0,0,1617672464.604498,-17.11091995239258,-3.97117805480957,-33.60498809814453,36.48835372924805,43.51792526245117,16.94576835632324,1046667.074804375,0.0411529541015625,-0.105865478515625,-0.993927001953125,1046667.077294375,-0.04854623228311539,0.03033899702131748,-0.002602973720058799,1046667.031092375,-5.762710571289062,30.80570983886719,-104.5051422119141,1046667.022503375,-1.500017696420031,0.03653098469604493,0.09095036121428465,0.03832197934389114,0.01488818228244781,-0.04018991440534592,0.001012232154607773,-0.006556563079357147,-0.002661287784576416,2,0.04569341621765513,-0.01763209962143553,-0.6802194375934075,0.7313704585050677,0.03637190535664558,-0.09082502126693726,-0.9952024221420288,-17.18969535827637,-3.845363616943359,-33.40945434570312,-1,2,1046665.528912042,1,2,1617672463.062319,1617670944.349944,97,1.562887,0,0,65.01641,0,0,1617672335.235306,1046663.784587,0,-1.474426,98.15591,1617672464.09485,587422867,1685438189,0,0,1,1617672463.093537,1,0.14,1617672464.609511,-9.400735,-25.17673,0
1617672464.634311,47,0,0,0,0,0,0,0,0,0,1617672464.624886,-17.13014984130859,-3.951601028442383,-33.42639923095703,36.47946548461914,43.50903701782227,16.94577407836914,1046667.108425375,0.0474090576171875,-0.081268310546875,-1.01129150390625,1046667.077294375,-0.04854623228311539,0.03033899702131748,-0.002602973720058799,1046667.091073375,-5.699249267578125,30.76004028320312,-104.5559692382812,1046667.082276375,-1.501523837337461,0.03727077162848859,0.08938925050485785,-0.05342921614646912,0.02898571453988552,0.004074398428201675,0.009838026016950607,-0.006661750376224518,-0.0128018856048584,2,0.04536234133406943,-0.0168638243810012,-0.6807876923661073,0.7308803373484001,0.03711337223649025,-0.08927025645971298,-0.9953157305717468,-17.11322021484375,-3.991415023803711,-33.51347351074219,-1,2,1046665.528912042,1,2,1617672463.062319,1617670944.349944,97,1.562887,0,0,65.01641,0,0,1617672335.235306,1046663.784587,0,-1.474426,98.15591,1617672464.09485,587422867,1685438189,0,0,1,1617672463.093537,1,0.14,1617672464.630731,-9.400735,-25.92365,0
1617672464.674102,48,0,0,0,0,0,0,0,0,0,1617672464.664428,-17.11258697509766,-3.962291717529297,-33.49881744384766,36.47075653076172,43.50032806396484,16.94578742980957,1046667.142048375,0.0427093505859375,-0.081512451171875,-0.99664306640625,1046667.144538375,0.01392034254968166,0.01403539162129164,-0.005515406373888254,1046667.091073375,-5.699249267578125,30.76004028320312,-104.5559692382812,1046667.082276375,-1.501523837337461,0.03727077162848859,0.08938925050485785,-0.05342921614646912,0.02898571453988552,0.004074398428201675,0.009838026016950607,-0.006661750376224518,-0.0128018856048584,2,0.04536234133406943,-0.0168638243810012,-0.6807876923661073,0.7308803373484001,0.03711337223649025,-0.08927025645971298,-0.9953157305717468,-17.11322021484375,-3.991415023803711,-33.51347351074219,-1,2,1046665.528912042,1,2,1617672463.062319,1617670944.349944,97,1.562887,0,0,65.01641,0,0,1617672335.235306,1046663.784587,0,-1.474426,98.15591,1617672464.09485,587422867,1685438189,0,0,1,1617672463.093537,1,0.14,1617672464.663023,-9.400735,-26.59825,0
1617672464.712682,49,0,0,0,0,0,0,0,0,0,1617672464.704275,-17.11396598815918,-3.98101806640625,-33.353759765625,36.45891571044922,43.48848724365234,16.94579887390137,1046667.175669375,0.0393218994140625,-0.0976104736328125,-0.9969329833984375,1046667.144538375,0.01392034254968166,0.01403539162129164,-0.005515406373888254,1046667.151058375,-5.730712890625,30.75346374511719,-104.4518280029297,1046667.142048375,-1.501255328538334,0.0372832740601456,0.08951025967565768,0.003980554640293121,0.003425899893045425,-0.004907252267003059,0.004561707377433777,0.004490874707698822,0.006763815879821777,2,0.04541302023534486,-0.01689442711482968,-0.6806866128517389,0.7309705360130114,0.03712541237473488,-0.08939077705144882,-0.9953044652938843,-17.1602725982666,-3.892333984375,-33.46035766601562,-1,2,1046665.528912042,1,2,1617672463.062319,1617670944.349944,97,1.562887,0,0,65.01641,0,0,1617672335.235306,1046664.733665,0,-1.474426,98.15591,1617672464.09485,587422867,1685438189,0,0,1,1617672463.093537,1,0.14,1617672464.697352,-9.400735,-27.76711,0
1617672464.73364,50,0,0,0,0,0,0,0,0,0,1617672464.724084,-17.16525077819824,-3.943693161010742,-33.48854064941406,36.42606353759766,43.45563507080078,16.94580459594727,1046667.209290375,0.040435791015625,-0.077362060546875,-0.9910125732421875,1046667.178159375,0.01321140956133604,0.03398486599326134,0.02351677790284157,1046667.151058375,-5.730712890625,30.75346374511719,-104.4518280029297,1046667.142048375,-1.501255328538334,0.0372832740601456,0.08951025967565768,0.003980554640293121,0.003425899893045425,-0.004907252267003059,0.004561707377433777,0.004490874707698822,0.006763815879821777,2,0.04541302023534486,-0.01689442711482968,-0.6806866128517389,0.7309705360130114,0.03712541237473488,-0.08939077705144882,-0.9953044652938843,-17.1602725982666,-3.892333984375,-33.46035766601562,-1,2,1046665.528912042,1,2,1617672463.062319,1617670944.349944,97,1.562887,0,0,65.01641,0,0,1617672335.235306,1046664.733665,0,-1.474426,98.15591,1617672464.09485,587422867,1685438189,0,0,1,1617672463.093537,1,0.14,1617672464.73024,-9.400735,-28.22989,0
1617672464.783895,51,0,0,0,0,0,0,0,0,0,1617672464.763974,-17.09502792358398,-3.967809677124023,-33.46672058105469,36.40287780761719,43.43244934082031,16.94581604003906,1046667.242914375,0.03692626953125,-0.0810546875,-0.9688720703125,1046667.245404375,-0.05970647186040878,-0.04246916249394417,-0.01179913524538279,1046667.211042375,-5.631637573242188,30.72862243652344,-104.5499420166016,1046667.201820375,-1.500320915961585,0.03867282633810487,0.08985462859890422,0.02193131484091282,-0.02191981114447117,0.02766734175384045,0.00130307674407959,0.01264636218547821,0.005352973937988281,2,0.04601929882616731,-0.01648247741240835,-0.6803056073963538,0.7312966875479725,0.03850721195340157,-0.08973376452922821,-0.9952210783958435,-17.12987327575684,-3.893863677978516,-33.51645660400391,-1,2,1046665.528912042,1,2,1617672463.062319,1617670944.349944,97,1.562887,0,0,65.01641,0,0,1617672335.235306,1046664.733665,0,-1.474426,98.15591,1617672464.09485,587422867,1685438189,0,0,1,1617672463.093537,1,0.14,1617672464.772507,-9.400735,-28.99576,0
1617672464.803462,52,0,0,0,0,0,0,0,0,0,1617672464.783855,-17.15749549865723,-3.944833755493164,-33.54254150390625,36.41045379638672,43.44002532958984,16.94582176208496,1046667.276535375,0.031036376953125,-0.105316162109375,-0.9501800537109375,1046667.245404375,-0.05970647186040878,-0.04246916249394417,-0.01179913524538279,1046667.271027375,-5.740066528320312,30.86758422851562,-104.6186676025391,1046667.261593375,-1.500172472362124,0.03673447517039611,0.08785540170435352,-0.1064663380384445,-0.02757743000984192,0.002198734320700169,-0.004785142838954926,-0.01650562882423401,0.04478758573532104,2,0.04463127116029147,-0.01650661026041837,-0.6803392883520175,0.7313508327212465,0.03658456727862358,-0.08774242550134659,-0.995471179485321,-17.1622142791748,-3.960262298583984,-33.49353790283203,-1,2,1046665.528912042,1,2,1617672463.062319,1617670944.349944,97,1.562887,0,0,65.01641,0,0,1617672335.235306,1046664.733665,0,-1.474426,98.15591,1617672464.09485,587422867,1685438189,0,0,1,1617672463.093537,1,0.14,1617672464.797441,-9.400735,-29.33103,0
1617672464.845231,53,0,0,0,0,0,0,0,0,0,1617672464.843442,-17.1642894744873,-3.64531135559082,-33.46714019775391,36.35518646240234,43.38475799560547,16.94585990905762,1046667.310156375,0.0206146240234375,-0.1009979248046875,-0.9608612060546875,1046667.279025375,-0.1142858266830444,0.01332965400069952,0.01359810028225183,1046667.271027375,-5.740066528320312,30.86758422851562,-104.6186676025391,1046667.261593375,-1.500172472362124,0.03673447517039611,0.08785540170435352,-0.1064663380384445,-0.02757743000984192,0.002198734320700169,-0.004785142838954926,-0.01650562882423401,0.04478758573532104,2,0.04463127116029147,-0.01650661026041837,-0.6803392883520175,0.7313508327212465,0.03658456727862358,-0.08774242550134659,-0.995471179485321,-17.1622142791748,-3.960262298583984,-33.49353790283203,-1,2,1046665.528912042,1,2,1617672463.062319,1617670944.349944,97,1.562887,0,0,65.01641,0,0,1617672335.235306,1046664.733665,0,-1.474426,98.15591,1617672464.09485,587422867,1685438189,0,0,1,1617672463.093537,1,0.14,1617672464.845193,-9.400735,-30.21649,0
1617672464.873474,54,0,0,0,0,0,0,0,0,0,1617672464.863498,-17.11103820800781,-3.455615997314453,-33.45029449462891,36.34591293334961,43.37548446655273,16.94587326049805,1046667.3437795,0.0415496826171875,-0.0822601318359375,-1.044937133789062,1046667.312648375,-0.2249210029840469,0.1191831156611443,0.009468869306147099,1046667.3310085,-5.663925170898438,31.26493835449219,-104.6002655029297,1046667.3213655,-1.499138429866427,0.03943502874317117,0.07749424966526834,-0.2358281761407852,0.09936976432800293,0.003150152042508125,-0.001662950962781906,-0.01293057203292847,-0.03371399641036987,2,0.04177266062128784,-0.01196648590557541,-0.6801207175226212,0.7318111729095746,0.03930648788809776,-0.07741671055555344,-0.9962236881256104,-17.13486099243164,-3.517833709716797,-33.48609924316406,-1,2,1046665.528912042,1,2,1617672463.062319,1617670944.349944,97,1.562887,0,0,65.01641,0,0,1617672335.235306,1046664.733665,0,-1.474426,98.15591,1617672464.09485,587422867,1685438189,0,0,1,1617672463.093537,1,0.14,1617672464.86391,-9.400735,-25.27016,0
1617672464.902929,55,0,0,0,0,0,0,0,0,0,1617672464.883461,-17.10801124572754,-3.165363311767578,-33.34822845458984,36.357421875,43.38699340820312,16.94588279724121,1046667.3774005,0.034271240234375,-0.076873779296875,-1.030258178710938,1046667.3462695,-0.1495490074157715,0.02425873465836048,-0.01831269450485706,1046667.3310085,-5.663925170898438,31.26493835449219,-104.6002655029297,1046667.3213655,-1.499138429866427,0.03943502874317117,0.07749424966526834,-0.2358281761407852,0.09936976432800293,0.003150152042508125,-0.001662950962781906,-0.01293057203292847,-0.03371399641036987,2,0.04177266062128784,-0.01196648590557541,-0.6801207175226212,0.7318111729095746,0.03930648788809776,-0.07741671055555344,-0.9962236881256104,-17.13486099243164,-3.517833709716797,-33.48609924316406,-1,2,1046665.528912042,1,2,1617672463.062319,1617670944.349944,97,1.562887,0,0,65.01641,0,0,1617672335.235306,1046664.733665,0,-1.474426,98.15591,1617672464.09485,587422867,1685438189,0,0,1,1617672463.093537,1,0.14,1617672464.90285,-9.400735,-26.45181,0
1617672464.952911,56,0,0,0,0,0,0,0,0,0,1617672464.943121,-17.00154113769531,-3.077140808105469,-33.40625,36.44551467895508,43.4750862121582,16.94588851928711,1046667.4110235,0.0451812744140625,-0.07696533203125,-1.061492919921875,1046667.3798905,-0.01512861903756857,0.1074023544788361,-0.03311161324381828,1046667.3909955,-5.67779541015625,31.63871765136719,-104.6529541015625,1046667.3811375,-1.499930237529415,0.04218606118469554,0.07131863597311681,-0.02426652982831001,0.1061757132411003,-0.03152581304311752,-0.003064766526222229,-0.008346915245056152,-0.04452145099639893,2,0.04044812566513464,-0.008872226230220564,-0.6804781811492262,0.73159731227291,0.04206633940339088,-0.07125819474458694,-0.9965704679489136,-17.13680839538574,-3.00767707824707,-33.57546234130859,-1,2,1046665.528912042,1,2,1617672463.062319,1617670944.349944,97,1.562887,0,0,65.01641,0,0,1617672335.235306,1046664.733665,0,-1.474426,98.15591,1617672464.09485,587422867,1685438189,0,0,1,1617672463.093537,1,0.14,1617672464.9306,-9.400735,-27.05647,0
1617672464.973083,57,0,0,0,0,0,0,0,0,0,1617672464.96299,-16.9876537322998,-2.926860809326172,-33.62331390380859,36.45990753173828,43.48947906494141,16.94590187072754,1046667.4446455,0.0397186279296875,-0.0651702880859375,-1.03216552734375,1046667.4135135,0.05456257611513138,0.04587934166193008,-0.0164713840931654,1046667.3909955,-5.67779541015625,31.63871765136719,-104.6529541015625,1046667.3811375,-1.499930237529415,0.04218606118469554,0.07131863597311681,-0.02426652982831001,0.1061757132411003,-0.03152581304311752,-0.003064766526222229,-0.008346915245056152,-0.04452145099639893,2,0.04044812566513464,-0.008872226230220564,-0.6804781811492262,0.73159731227291,0.04206633940339088,-0.07125819474458694,-0.9965704679489136,-17.13680839538574,-3.00767707824707,-33.57546234130859,-1,2,1046665.528912042,1,2,1617672463.062319,1617670944.349944,97,1.562887,0,0,65.01641,0,0,1617672335.235306,1046664.733665,0,-1.474426,98.15591,1617672464.09485,587422867,1685438189,0,0,1,1617672463.093537,1,0.14,1617672464.965422,-9.400735,-27.61616,0
1617672465.012384,58,0,0,0,0,0,0,0,0,0,1617672465.002968,-16.92318344116211,-3.128839492797852,-33.55084991455078,36.48475646972656,43.51432800292969,16.94594573974609,1046667.4782665,0.0488433837890625,-0.05816650390625,-1.027297973632812,1046667.4471355,0.07410299032926559,0.04780427366495132,-0.009997240267693996,1046667.4509795,-5.528961181640625,31.65786743164062,-104.6710968017578,1046667.4409105,-1.501077917445137,0.04504914757189803,0.0737700003184099,0.05387255176901817,0.03529740124940872,-0.005416818894445896,-0.004063539206981659,0.010455422103405,-0.03118211030960083,2,0.04231258637820649,-0.008684595240694398,-0.680788809205228,0.7312051066192741,0.04491142928600311,-0.0737031102180481,-0.9962684512138367,-16.9713020324707,-2.974020004272461,-33.64723968505859,-1,2,1046665.528912042,1,2,1617672463.062319,1617670944.349944,97,1.562887,0,0,65.01641,0,0,1617672335.235306,1046664.733665,0,-1.474426,98.15591,1617672464.09485,587422867,1685438189,0,0,1,1617672463.093537,1,0.14,1617672464.997261,-9.400735,-28.46841,0
1617672465.042869,59,0,0,0,0,0,0,0,0,0,1617672465.022873,-16.94487190246582,-3.219667434692383,-33.74480438232422,36.50564575195312,43.53521728515625,16.94596672058105,1046667.5118895,0.043670654296875,-0.0660400390625,-0.98193359375,1046667.4807585,0.1214404106140137,-0.002536394633352757,-0.01371874194592237,1046667.5109645,-5.511810302734375,31.22994995117188,-104.8360595703125,1046667.5006825,-1.501931421972158,0.04562771162745474,0.07907842827822227,0.0991763174533844,0.002011494711041451,-0.01268288400024176,-0.001340817660093307,0.01342901587486267,0.01134037971496582,2,0.04444271699572315,-0.01030219976393897,-0.6809751242037163,0.7308841218856708,0.04546933993697166,-0.07899603247642517,-0.995837390422821,-16.91226387023926,-3.289222717285156,-33.71233367919922,-1,2,1046665.528912042,1,2,1617672463.062319,1617670944.349944,97,1.562887,0,0,65.01641,0,0,1617672335.235306,1046664.733665,0,-1.474426,98.15591,1617672464.09485,587422867,1685438189,0,0,1,1617672463.093537,1,0.14,1617672465.029902,-9.400735,-28.86851,0
1617672465.073012,60,0,0,0,0,0,0,0,0,0,1617672465.063104,-16.87508201599121,-3.518547058105469,-33.51722717285156,36.54392623901367,43.5734977722168,16.94600486755371,1046667.5455105,0.0526275634765625,-0.065032958984375,-1.004135131835938,1046667.5143795,0.07258445769548416,0.04014821723103523,-0.01152509544044733,1046667.5109645,-5.511810302734375,31.22994995117188,-104.8360595703125,1046667.5006825,-1.501931421972158,0.04562771162745474,0.07907842827822227,0.0991763174533844,0.002011494711041451,-0.01268288400024176,-0.001340817660093307,0.01342901587486267,0.01134037971496582,2,0.04444271699572315,-0.01030219976393897,-0.6809751242037163,0.7308841218856708,0.04546933993697166,-0.07899603247642517,-0.995837390422821,-16.91226387023926,-3.289222717285156,-33.71233367919922,-1,2,1046665.528912042,1,2,1617672463.062319,1617670944.349944,97,1.562887,0,0,65.01641,0,0,1617672335.235306,1046664.733665,0,-1.474426,98.15591,1617672464.09485,587422867,1685438189,0,0,1,1617672463.093537,1,0.14,1617672465.072861,-9.400735,-29.56976,0
1617672465.102642,61,0,0,0,0,0,0,0,0,0,1617672465.082536,-16.90436553955078,-3.465461730957031,-33.64849853515625,36.57674407958984,43.60631561279297,16.94601631164551,1046667.5791315,0.044342041015625,-0.079681396484375,-0.9705963134765625,1046667.5480005,-0.01662398315966129,-0.06832073628902435,-0.03224875032901764,1046667.5709495,-5.443588256835938,31.21424865722656,-104.7256622314453,1046667.5604545,-1.503260110056887,0.04434090847160012,0.07877311417269388,-0.03044747188687325,-0.07332681119441986,-0.03603493422269821,0.001984279602766037,0.005357928574085236,0.01793760061264038,2,0.04388607717416247,-0.01069744914790938,-0.6814955613767626,0.7304269160924284,0.04418892413377762,-0.07869166880846024,-0.9959191679954529,-16.91300582885742,-3.459201812744141,-33.65956878662109,-1,2,1046665.528912042,1,2,1617672463.062319,1617670944.349944,97,1.562887,0,0,65.01641,0,0,1617672335.235306,1046664.733665,0,-1.474426,98.15591,1617672464.09485,587422867,1685438189,0,0,1,1617672463.093537,1,0.14,1617672465.096463,-9.400735,-29.57473,0
1617672465.146507,62,0,0,0,0,0,0,0,0,0,1617672465.142289,-17.00602912902832,-3.31666374206543,-33.64389801025391,36.64676284790039,43.67633438110352,16.94602966308594,1046667.6127555,0.0445404052734375,-0.0840301513671875,-0.9805755615234375,1046667.6152455,0.0362434908747673,0.02287282608449459,-0.008325041271746159,1046667.5709495,-5.443588256835938,31.21424865722656,-104.7256622314453,1046667.5604545,-1.503260110056887,0.04434090847160012,0.07877311417269388,-0.03044747188687325,-0.07332681119441986,-0.03603493422269821,0.001984279602766037,0.005357928574085236,0.01793760061264038,2,0.04388607717416247,-0.01069744914790938,-0.6814955613767626,0.7304269160924284,0.04418892413377762,-0.07869166880846024,-0.9959191679954529,-16.91300582885742,-3.459201812744141,-33.65956878662109,-1,2,1046665.528912042,1,2,1617672463.062319,1617670944.349944,97,1.562887,0,0,65.01641,0,0,1617672335.235306,1046664.733665,0,-1.474426,98.15591,1617672464.09485,587422867,1685438189,0,0,1,1617672463.093537,1,0.14,1617672465.146431,-9.400735,-29.77284,0
1617672465.17226,63,0,0,0,0,0,0,0,0,0,1617672465.162282,-17.03283309936523,-3.340688705444336,-33.52391815185547,36.65413665771484,43.68370819091797,16.9460334777832,1046667.6463765,0.039154052734375,-0.0814361572265625,-0.991668701171875,1046667.6152455,0.0362434908747673,0.02287282608449459,-0.008325041271746159,1046667.6309405,-5.60406494140625,31.330810546875,-104.6284637451172,1046667.6202275,-1.504344973432235,0.04384194393445157,0.0780539440669669,0.01749744638800621,0.01292986795306206,-0.004413978662341833,0.0004035495221614838,-0.001401513814926147,0.005869805812835693,2,0.04344805203270979,-0.01065773372658548,-0.6819179730471225,0.7300593313967148,0.04369445890188217,-0.07797471433877945,-0.9959973692893982,-17.01054573059082,-3.279605865478516,-33.67391204833984,-1,2,1046665.528912042,1,2,1617672463.062319,1617670944.349944,97,1.562887,0,0,65.01641,0,0,1617672335.235306,1046664.733665,0,-1.474426,98.15591,1617672464.09485,587422867,1685438189,0,0,1,1617672463.093537,1,0.14,1617672465.162924,-9.400735,-30.30586,0
1617672465.211851,64,0,0,0,0,0,0,0,0,0,1617672465.202311,-17.07493019104004,-3.428686141967773,-33.50009155273438,36.65868377685547,43.68825531005859,16.946044921875,1046667.6799995,0.0410919189453125,-0.0786285400390625,-0.9932708740234375,1046667.6488665,-0.0474277026951313,0.01550226099789143,-0.007480286993086338,1046667.6309405,-5.60406494140625,31.330810546875,-104.6284637451172,1046667.6202275,-1.504344973432235,0.04384194393445157,0.0780539440669669,0.01749744638800621,0.01292986795306206,-0.004413978662341833,0.0004035495221614838,-0.001401513814926147,0.005869805812835693,2,0.04344805203270979,-0.01065773372658548,-0.6819179730471225,0.7300593313967148,0.04369445890188217,-0.07797471433877945,-0.9959973692893982,-17.01054573059082,-3.279605865478516,-33.67391204833984,-1,2,1046665.528912042,1,2,1617672463.062319,1617670944.349944,97,1.562887,0,0,65.01641,0,0,1617672335.235306,1046664.733665,0,-1.474426,98.15591,1617672464.09485,587422867,1685438189,0,0,1,1617672463.093537,1,0.14,1617672465.201237,-9.400735,-30.49185,0
1617672465.242139,65,0,0,0,0,0,0,0,0,0,1617672465.222192,-17.07888793945312,-3.391311645507812,-33.40949249267578,36.64673614501953,43.67630767822266,16.94604873657227,1046667.7136205,0.048004150390625,-0.0687255859375,-1.023101806640625,1046667.6824895,-0.04192880913615227,0.01608629152178764,0.005113269202411175,1046667.6909315,-5.64544677734375,31.29615783691406,-104.5429840087891,1046667.6799995,-1.504486287394805,0.04441599456505852,0.07565102176745969,-0.05796242132782936,0.00884891115128994,0.006051110103726387,-0.00432678684592247,-0.001722134649753571,0.001817464828491211,2,0.04276734685547926,-0.009630398549469897,-0.6820080519878547,0.7300296704968274,0.04427439719438553,-0.07557888329029083,-0.9961563944816589,-17.06834030151367,-3.370368957519531,-33.48671722412109,-1,2,1046665.528912042,1,2,1617672463.062319,1617670944.349944,97,1.562887,0,0,65.01641,0,0,1617672335.235306,1046664.733665,0,-1.474426,98.15591,1617672464.09485,587422867,1685438189,0,0,1,1617672463.093537,1,0.14,1617672465.23081,-9.400735,-31.11249,0
1617672465.271701,66,0,0,0,0,0,0,0,0,0,1617672465.261957,-17.06830215454102,-3.235685348510742,-33.50664520263672,36.60715103149414,43.63672256469727,16.9460563659668,1046667.7472415,0.0345001220703125,-0.0670318603515625,-0.99383544921875,1046667.7161105,0.02329786494374275,-0.05108582228422165,0.01805809698998928,1046667.6909315,-5.64544677734375,31.29615783691406,-104.5429840087891,1046667.6799995,-1.504486287394805,0.04441599456505852,0.07565102176745969,-0.05796242132782936,0.00884891115128994,0.006051110103726387,-0.00432678684592247,-0.001722134649753571,0.001817464828491211,2,0.04276734685547926,-0.009630398549469897,-0.6820080519878547,0.7300296704968274,0.04427439719438553,-0.07557888329029083,-0.9961563944816589,-17.06834030151367,-3.370368957519531,-33.48671722412109,-1,2,1046665.528912042,1,2,1617672463.062319,1617670944.349944,97,1.562887,0,0,65.01641,0,0,1617672335.235306,1046664.733665,0,-1.474426,98.15591,1617672464.09485,587422867,1685438189,0,0,1,1617672463.093537,1,0.14,1617672465.263231,-9.958014,-29.70607,0
1617672465.322323,67,0,0,0,0,0,0,0,0,0,1617672465.321751,-17.05503082275391,-3.401569366455078,-33.45556640625,36.58380508422852,43.61337661743164,16.94606590270996,1046667.7808645,0.03765869140625,-0.0652618408203125,-1.0150146484375,1046667.7833545,0.03793220221996307,-0.02759034931659698,0.002675145398825407,1046667.7509155,-5.58746337890625,31.223876953125,-104.5161285400391,1046667.7397715,-1.503554251408837,0.04268013339248924,0.07545023028261107,0.007848006673157215,-0.02034799754619598,0.01149741373956203,-0.008335471153259277,0.008301027119159698,0.002579331398010254,2,0.04210696216596098,-0.01017579685548488,-0.6817087908521768,0.7303400763457382,0.04254578799009323,-0.0753786638379097,-0.9962469339370728,-17.09391784667969,-3.304239273071289,-33.43520355224609,-1,2,1046665.528912042,1,2,1617672463.062319,1617670944.349944,97,1.562887,0,0,65.01641,0,0,1617672335.235306,1046664.733665,0,-1.474426,98.15591,1617672464.09485,587422867,1685438189,0,0,1,1617672463.093537,1,0.14,1617672465.297276,-11.07257,-30.13812,0
1617672465.341246,68,0,0,0,0,0,0,0,0,0,1617672465.321751,-17.05503082275391,-3.401569366455078,-33.45556640625,36.58380508422852,43.61337661743164,16.94606590270996,1046667.8144865,0.0352935791015625,-0.0650177001953125,-0.9907989501953125,1046667.7833545,0.03793220221996307,-0.02759034931659698,0.002675145398825407,1046667.8109065,-5.602813720703125,31.25563049316406,-104.3979797363281,1046667.7995435,-1.503241504880323,0.0418329552774895,0.07568387372168742,0.02575059235095978,-0.01235510781407356,-0.005318793468177319,-0.006880372762680054,0.00937323272228241,0.003268778324127197,2,0.04190503957204884,-0.01055838410015741,-0.6816075576025964,0.7304406910705521,0.04170103743672371,-0.07561164349317551,-0.9962649941444397,-17.04801559448242,-3.445121765136719,-33.37217712402344,-1,2,1046665.528912042,1,2,1617672463.062319,1617670944.349944,97,1.562887,0,0,65.01641,0,0,1617672335.235306,1046664.733665,0,-1.474426,98.15591,1617672464.09485,587422867,1685438189,0,0,1,1617672463.093537,1,0.14,1617672465.330715,-11.62985,-30.65496,0
1617672465.375957,69,0,0,0,0,0,0,0,0,0,1617672465.361937,-17.03014945983887,-3.521478652954102,-33.21199798583984,36.61559677124023,43.64516830444336,16.94607543945312,1046667.8481075,0.0460205078125,-0.0581512451171875,-0.992523193359375,1046667.8169765,0.008672051131725311,0.01632464490830898,-0.01439971197396517,1046667.8109065,-5.602813720703125,31.25563049316406,-104.3979797363281,1046667.7995435,-1.503241504880323,0.0418329552774895,0.07568387372168742,0.02575059235095978,-0.01235510781407356,-0.005318793468177319,-0.006880372762680054,0.00937323272228241,0.003268778324127197,2,0.04190503957204884,-0.01055838410015741,-0.6816075576025964,0.7304406910705521,0.04170103743672371,-0.07561164349317551,-0.9962649941444397,-17.04801559448242,-3.445121765136719,-33.37217712402344,-1,2,1046665.528912042,1,2,1617672463.062319,1617670944.349944,97,1.562887,0,0,65.01641,0,0,1617672335.235306,1046664.733665,0,-1.474426,98.15591,1617672464.09485,587422867,1685438189,0,0,1,1617672463.093537,1,0.14,1617672465.369426,-12.74441,-29.74559,0
1617672465.411091,70,0,0,0,0,0,0,0,0,0,1617672465.401385,-17.07690048217773,-3.499481201171875,-33.03136444091797,36.69956588745117,43.7291374206543,16.94608497619629,1046667.8817305,0.04937744140625,-0.0802001953125,-1.00482177734375,1046667.8505995,-0.01118208095431328,0.01853959634900093,-0.04170510172843933,1046667.8708895,-5.651809692382812,31.20021057128906,-104.2218627929688,1046667.8593165,-1.504684062731155,0.04221009234858763,0.07445010221326696,-0.01378759648650885,0.006797999609261751,-0.04132199287414551,0.007312141358852386,0.005274288356304169,-0.00472646951675415,2,0.04157640915175349,-0.01002944393595494,-0.6821516303920006,0.729958914443718,0.04208066686987877,-0.07438134402036667,-0.9963416457176208,-17.04536819458008,-3.509258270263672,-32.96530151367188,-1,2,1046665.528912042,1,2,1617672463.062319,1617670944.349944,97,1.562887,0,0,65.01641,0,0,1617672335.235306,1046664.733665,0,-1.474426,98.15591,1617672464.09485,587422867,1685438189,0,0,1,1617672463.093537,1,0.14,1617672465.397415,-13.30169,-29.16938,0
1617672465.440855,71,0,0,0,0,0,0,0,0,0,1617672465.421534,-17.00758743286133,-3.463951110839844,-33.39136505126953,36.72274780273438,43.7523193359375,16.94609069824219,1046667.9153515,0.0473785400390625,-0.084808349609375,-0.991363525390625,1046667.8842205,0.007862184196710587,-0.01828872598707676,-0.02328375168144703,1046667.8708895,-5.651809692382812,31.20021057128906,-104.2218627929688,1046667.8593165,-1.504684062731155,0.04221009234858763,0.07445010221326696,-0.01378759648650885,0.006797999609261751,-0.04132199287414551,0.007312141358852386,0.005274288356304169,-0.00472646951675415,2,0.04157640915175349,-0.01002944393595494,-0.6821516303920006,0.729958914443718,0.04208066686987877,-0.07438134402036667,-0.9963416457176208,-17.04536819458008,-3.509258270263672,-32.96530151367188,-1,2,1046665.528912042,1,2,1617672463.062319,1617670944.349944,97,1.562887,0,0,65.01641,0,0,1617672335.235306,1046664.733665,0,-1.474426,98.15591,1617672464.09485,587422867,1685438189,0,0,1,1617672463.093537,1,0.14,1617672465.440826,-14.41625,-29.5881,0
1617672465.481364,72,0,0,0,0,0,0,0,0,0,1617672465.461367,-16.89096450805664,-3.570354461669922,-33.36318206787109,36.71382904052734,43.74340057373047,16.94610023498535,1046667.9489745,0.041534423828125,-0.0804595947265625,-1.002243041992188,1046667.9514645,-0.04844769462943077,0.01292831543833017,0.01341673918068409,1046667.9308725,-5.438201904296875,31.09223937988281,-104.4666137695312,1046667.9190885,-1.505624153460442,0.04121977681387341,0.07255923267852736,-0.05016658455133438,-0.005660219117999077,0.006490754894912243,0.002723671495914459,-0.01154982298612595,0.005554795265197754,2,0.04054489675598721,-0.009763936199546205,-0.6825531266545689,0.7296450970263866,0.0410996749997139,-0.07249557971954346,-0.996521532535553,-16.92898368835449,-3.486883163452148,-33.51596069335938,-1,2,1046665.528912042,1,2,1617672463.062319,1617670944.349944,97,1.562887,0,0,65.01641,0,0,1617672335.235306,1046664.733665,0,-1.474426,98.15591,1617672464.09485,587422867,1685438189,0,0,1,1617672463.093537,1,0.14,1617672465.463268,-14.97352,-29.92427,0
1617672465.510741,73,0,0,0,0,0,0,0,0,0,1617672465.501005,-17.07155418395996,-3.263971328735352,-33.48739624023438,36.67295837402344,43.70252990722656,16.94611358642578,1046667.9825955,0.0388336181640625,-0.0782012939453125,-1.01776123046875,1046667.9514645,-0.04844769462943077,0.01292831543833017,0.01341673918068409,1046667.9308725,-5.438201904296875,31.09223937988281,-104.4666137695312,1046667.9190885,-1.505624153460442,0.04121977681387341,0.07255923267852736,-0.05016658455133438,-0.005660219117999077,0.006490754894912243,0.002723671495914459,-0.01154982298612595,0.005554795265197754,2,0.04054489675598721,-0.009763936199546205,-0.6825531266545689,0.7296450970263866,0.0410996749997139,-0.07249557971954346,-0.996521532535553,-16.92898368835449,-3.486883163452148,-33.51596069335938,-1,2,1046665.528912042,1,2,1617672463.062319,1617670944.349944,97,1.562887,0,0,65.01641,0,0,1617672335.235306,1046664.733665,0,-1.474426,98.15591,1617672464.09485,587422867,1685438189,0,0,1,1617672463.093537,1,0.14,1617672465.50303,-16.08808,-30.62752,0
1617672465.540698,74,0,0,0,0,0,0,0,0,0,1617672465.521264,-17.11332511901855,-3.294414520263672,-33.50386810302734,36.64186859130859,43.67144012451172,16.94611930847168,1046668.0162175,0.0399627685546875,-0.0650634765625,-1.018142700195312,1046667.9850855,-0.01439039129763842,-0.004024835303425789,0.02691070921719074,1046667.9908535,-5.679901123046875,31.38688659667969,-104.6528778076172,1046667.9788605,-1.504636108119063,0.04153716067323765,0.06986958247641396,-0.03081314265727997,-0.01794905588030815,0.02669264003634453,-0.002864833921194077,-0.007671386003494263,-0.01924574375152588,2,0.03967761781152034,-0.008709149091999178,-0.6822392197371969,0.7299997535759024,0.04142390191555023,-0.06981275230646133,-0.9966996908187866,-17.10273742675781,-3.257970809936523,-33.54209899902344,-1,2,1046665.528912042,1,2,1617672463.062319,1617670944.349944,97,1.562887,0,0,65.01641,0,0,1617672335.235306,1046664.733665,0,-1.474426,98.15591,1617672464.09485,587422867,1685438189,0,0,1,1617672463.093537,1,0.14,1617672465.530757,-16.64536,-30.86602,0
1617672465.580784,75,0,0,0,0,0,0,0,0,0,1617672465.560952,-17.16061592102051,-3.145444869995117,-33.67974853515625,36.58478927612305,43.61436080932617,16.94613075256348,1046668.0498405,0.038604736328125,-0.0576019287109375,-1.008346557617188,1046668.0187095,0.02517859078943729,0.001846103230491281,0.02206855081021786,1046668.0508385,-5.660385131835938,31.39967346191406,-104.5720367431641,1046668.0386335,-1.50318434398404,0.04124682028042449,0.07083914220343165,0.05900586768984795,0.001395266968756914,0.008964608423411846,-0.002465832978487015,0.01368152350187302,-0.01179450750350952,2,0.03993861347328664,-0.009117384751191365,-0.6816959638314044,0.7304878150824383,0.04113170504570007,-0.07077991217374802,-0.9966435432434082,-17.14218711853027,-3.194328308105469,-33.6043701171875,-1,2,1046665.528912042,1,2,1617672463.062319,1617670944.349944,97,1.562887,0,0,65.01641,0,0,1617672335.235306,1046664.733665,0,-1.474426,98.15591,1617672464.09485,587422867,1685438189,0,0,1,1617672463.093537,1,0.14,1617672465.564917,-17.20264,-31.1228,0
1617672465.611611,76,0,0,0,0,0,0,0,0,0,1617672465.600653,-17.12763786315918,-3.252544403076172,-33.50141906738281,36.59378814697266,43.62335968017578,16.94614601135254,1046668.0834615,0.043060302734375,-0.0707244873046875,-1.004379272460938,1046668.0523305,0.07971054315567017,0.008066714741289616,-0.007663245778530836,1046668.0508385,-5.660385131835938,31.39967346191406,-104.5720367431641,1046668.0386335,-1.50318434398404,0.04124682028042449,0.07083914220343165,0.05900586768984795,0.001395266968756914,0.008964608423411846,-0.002465832978487015,0.01368152350187302,-0.01179450750350952,2,0.03993861347328664,-0.009117384751191365,-0.6816959638314044,0.7304878150824383,0.04113170504570007,-0.07077991217374802,-0.9966435432434082,-17.14218711853027,-3.194328308105469,-33.6043701171875,-1,2,1046665.528912042,1,2,1617672463.062319,1617670944.349944,97,1.562887,0,0,65.01641,0,0,1617672335.235306,1046664.733665,0,-1.474426,98.15591,1617672464.09485,587422867,1685438189,0,0,1,1617672463.093537,1,0.14,1617672465.597509,-18.3172,-29.49639,0
1617672465.640298,77,0,0,0,0,0,0,0,0,0,1617672465.620477,-17.15358352661133,-3.30914306640625,-33.61998748779297,36.59956741333008,43.6291389465332,16.9461555480957,1046668.1170825,0.0403900146484375,-0.0730438232421875,-0.97515869140625,1046668.0859515,0.05301395058631897,-0.01975026912987232,-0.004480768460780382,1046668.1108185,-5.684814453125,31.2965087890625,-104.5974273681641,1046668.0984055,-1.503509482752327,0.04058682977511231,0.07376583027669266,0.02486248873174191,-0.003023749915882945,-0.004257416352629662,-0.000899195671081543,0.001387543976306915,0.0187218189239502,2,0.04077944077748667,-0.01036417017511133,-0.6817700601758968,0.7303556312729802,0.0404653437435627,-0.07369895279407501,-0.9964592456817627,-17.15146255493164,-3.329217910766602,-33.54102325439453,-1,2,1046665.528912042,1,2,1617672463.062319,1617670944.349944,97,1.562887,0,0,65.01641,0,0,1617672335.235306,1046665.682738,0,-1.466492,98.15582,1617672464.09485,587422867,1685438189,0,0,1,1617672463.093537,1,0.14,1617672465.630638,-18.87448,-26.40721,0
1617672465.685534,78,0,0,0,0,0,0,0,0,0,1617672465.680351,-16.96295547485352,-3.568115234375,-33.43947601318359,36.62252807617188,43.652099609375,16.94617462158203,1046668.1507055,0.0443115234375,-0.073944091796875,-1.002288818359375,1046668.1195745,0.02380999177694321,0.05273005738854408,-0.006429936271160841,1046668.1108185,-5.684814453125,31.2965087890625,-104.5974273681641,1046668.0984055,-1.503509482752327,0.04058682977511231,0.07376583027669266,0.02486248873174191,-0.003023749915882945,-0.004257416352629662,-0.000899195671081543,0.001387543976306915,0.0187218189239502,2,0.04077944077748667,-0.01036417017511133,-0.6817700601758968,0.7303556312729802,0.0404653437435627,-0.07369895279407501,-0.9964592456817627,-17.15146255493164,-3.329217910766602,-33.54102325439453,-1,2,1046665.528912042,1,2,1617672463.062319,1617670944.349944,97,1.562887,0,0,65.01641,0,0,1617672335.235306,1046665.682738,0,-1.466492,98.15582,1617672464.09485,587422867,1685438189,0,0,1,1617672463.093537,1,0.14,1617672465.673883,-19.98903,-27.4353,0
1617672465.710275,79,0,0,0,0,0,0,0,0,0,1617672465.700341,-16.98772048950195,-3.543222427368164,-33.47900390625,36.63430023193359,43.66387176513672,16.9461784362793,1046668.1843265,0.0417633056640625,-0.0745086669921875,-0.9949798583984375,1046668.1531955,0.0240536704659462,0.01039218716323376,-0.007760184817016125,1046668.1707965,-5.553054809570312,31.1549072265625,-104.6011047363281,1046668.1581775,-1.503924323194393,0.04169662256757953,0.0738159603879316,0.0139000192284584,0.0135273952037096,-0.008962573483586311,-0.001333493739366531,0.001651167869567871,0.009303748607635498,2,0.04117395697869271,-0.009984554805387486,-0.681897792086129,0.7302194957972505,0.04157102853059769,-0.07374894618988037,-0.9964100122451782,-16.98025512695312,-3.549077987670898,-33.58486938476562,-1,2,1046665.528912042,1,2,1617672463.062319,1617670944.349944,97,1.562887,0,0,65.01641,0,0,1617672335.235306,1046665.682738,0,-1.466492,98.15582,1617672464.09485,587422867,1685438189,0,0,1,1617672463.093537,1,0.14,1617672465.697357,-20.54631,-27.62579,0
1617672465.750368,80,0,0,0,0,0,0,0,0,0,1617672465.740161,-17.03667831420898,-3.491090774536133,-33.42567443847656,36.63753890991211,43.66711044311523,16.94619369506836,1046668.2179505,0.0470428466796875,-0.0679779052734375,-1.0087890625,1046668.1868165,-0.008653142489492893,0.03970533609390259,-0.003554787486791611,1046668.1707965,-5.553054809570312,31.1549072265625,-104.6011047363281,1046668.1581775,-1.503924323194393,0.04169662256757953,0.0738159603879316,0.0139000192284584,0.0135273952037096,-0.008962573483586311,-0.001333493739366531,0.001651167869567871,0.009303748607635498,2,0.04117395697869271,-0.009984554805387486,-0.681897792086129,0.7302194957972505,0.04157102853059769,-0.07374894618988037,-0.9964100122451782,-16.98025512695312,-3.549077987670898,-33.58486938476562,-1,2,1046665.528912042,1,2,1617672463.062319,1617670944.349944,97,1.562887,0,0,65.01641,0,0,1617672335.235306,1046665.682738,0,-1.466492,98.15582,1617672464.09485,587422867,1685438189,0,0,1,1617672463.093537,1,0.14,1617672465.743328,-21.66087,-28.44322,0
1617672465.780043,81,0,0,0,0,0,0,0,0,0,1617672465.760057,-16.94533348083496,-3.540472030639648,-33.40985107421875,36.6475830078125,43.67715454101562,16.94619941711426,1046668.2515715,0.0404052734375,-0.07403564453125,-0.9872894287109375,1046668.2204405,0.03988562896847725,-0.01669801957905293,-0.008635831996798515,1046668.2307755,-5.491241455078125,31.13589477539062,-104.5617218017578,1046668.2179505,-1.504163478762626,0.04258634609609874,0.07351305260174505,0.02116881310939789,-0.02380855940282345,-0.004480974283069372,0.0001136399805545807,0.006064042448997498,0.0003011822700500488,2,0.04136572884347633,-0.009561209439193639,-0.6819728866666029,0.7301441090433261,0.04245848953723907,-0.0734468549489975,-0.99639493227005,-16.98669624328613,-3.49162483215332,-33.44087982177734,-1,2,1046665.528912042,1,2,1617672463.062319,1617670944.349944,97,1.562887,0,0,65.01641,0,0,1617672335.235306,1046665.682738,0,-1.466492,98.15582,1617672464.09485,587422867,1685438189,0,0,1,1617672463.093537,1,0.14,1617672465.763914,-22.21815,-28.72618,0
1617672465.809476,82,0,0,0,0,0,0,0,0,0,1617672465.800103,-17.02807426452637,-3.522964477539062,-33.53684234619141,36.69826889038086,43.72784042358398,16.94621276855469,1046668.2851925,0.041595458984375,-0.0902252197265625,-0.9950408935546875,1046668.2540615,0.001919872825965285,0.03959028795361519,-0.02875228598713875,1046668.2307755,-5.491241455078125,31.13589477539062,-104.5617218017578,1046668.2179505,-1.504163478762626,0.04258634609609874,0.07351305260174505,0.02116881310939789,-0.02380855940282345,-0.004480974283069372,0.0001136399805545807,0.006064042448997498,0.0003011822700500488,2,0.04136572884347633,-0.009561209439193639,-0.6819728866666029,0.7301441090433261,0.04245848953723907,-0.0734468549489975,-0.99639493227005,-16.98669624328613,-3.49162483215332,-33.44087982177734,-1,2,1046665.528912042,1,2,1617672463.062319,1617670944.349944,97,1.562887,0,0,65.01641,0,0,1617672335.235306,1046665.682738,0,-1.466492,98.15582,1617672464.09485,587422867,1685438189,0,0,1,1617672463.093537,1,0.14,1617672465.804486,-22.87011,-29.0218,0
1617672465.864557,83,0,0,0,0,0,0,0,0,0,1617672465.859881,-16.91077423095703,-3.564970016479492,-33.61565399169922,36.70370864868164,43.73328018188477,16.94623565673828,1046668.3188155,0.0381317138671875,-0.0781402587890625,-0.9951171875,1046668.3213055,-0.03094433434307575,0.05808673799037933,-0.005561745725572109,1046668.2907595,-5.507827758789062,31.04521179199219,-104.580322265625,1046668.2777225,-1.505263888860953,0.04377149360287325,0.07352720007167411,-0.04392703995108604,0.02329295501112938,-0.008969511836767197,-0.002150539308786392,-0.01658114045858383,0.001424074172973633,2,0.04176996513167697,-0.009156357289261638,-0.6823495912782566,0.7297742937698201,0.04363928735256195,-0.07346096634864807,-0.9963428378105164,-17.05047416687012,-3.570863723754883,-33.49991607666016,-1,2,1046665.528912042,1,2,1617672463.062319,1617670944.349944,97,1.562887,0,0,65.01641,0,0,1617672335.235306,1046665.682738,0,-1.466492,98.15582,1617672464.09485,587422867,1685438189,0,0,1,1617672463.093537,1,0.14,1617672465.830635,-22.87011,-29.43186,0
1617672465.879132,84,0,0,0,0,0,0,0,0,0,1617672465.859881,-16.91077423095703,-3.564970016479492,-33.61565399169922,36.70370864868164,43.73328018188477,16.94623565673828,1046668.35243625,0.0465240478515625,-0.07122802734375,-1.023086547851562,1046668.3213055,-0.03094433434307575,0.05808673799037933,-0.005561745725572109,1046668.35074325,-5.512649536132812,31.24800109863281,-104.6954956054688,1046668.33749425,-1.505373843740342,0.04556109328182802,0.07114542949195274,-0.05523769184947014,0.008954403921961784,-0.02145643718540668,0.001200851052999496,0.001383282244205475,-0.03006935119628906,2,0.04151233749846133,-0.007691616522365398,-0.6824012777134845,0.729757601067919,0.04543011263012886,-0.07108542323112488,-0.9964351058006287,-16.91334342956543,-3.461051940917969,-33.61269378662109,-1,2,1046665.528912042,1,2,1617672463.062319,1617670944.349944,97,1.562887,0,0,65.01641,0,0,1617672335.235306,1046665.682738,0,-1.466492,98.15582,1617672464.09485,587422867,1685438189,0,0,1,1617672463.093537,1,0.14,1617672465.865105,-22.87011,-29.66268,0
1617672465.910535,85,0,0,0,0,0,0,0,0,0,1617672465.89969,-16.87583160400391,-3.378561019897461,-33.53987121582031,36.74995040893555,43.77952194213867,16.94624900817871,1046668.38605725,0.0443115234375,-0.070465087890625,-1.012054443359375,1046668.35492625,0.0004599279200192541,-0.01358052343130112,-0.02342862635850906,1046668.35074325,-5.512649536132812,31.24800109863281,-104.6954956054688,1046668.33749425,-1.505373843740342,0.04556109328182802,0.07114542949195274,-0.05523769184947014,0.008954403921961784,-0.02145643718540668,0.001200851052999496,0.001383282244205475,-0.03006935119628906,2,0.04151233749846133,-0.007691616522365398,-0.6824012777134845,0.729757601067919,0.04543011263012886,-0.07108542323112488,-0.9964351058006287,-16.91334342956543,-3.461051940917969,-33.61269378662109,-1,2,1046665.528912042,1,2,1617672463.062319,1617670944.349944,97,1.562887,0,0,65.01641,0,0,1617672335.235306,1046665.682738,0,-1.466492,98.15582,1617672464.09485,587422867,1685438189,0,0,1,1617672463.093537,1,0.14,1617672465.897486,-22.87011,-30.44723,0
1617672465.94904,86,0,0,0,0,0,0,0,0,0,1617672465.939561,-16.871826171875,-3.378091812133789,-33.53166961669922,36.8380012512207,43.86757278442383,16.94626045227051,1046668.41968125,0.0448760986328125,-0.0785064697265625,-0.988922119140625,1046668.38854925,0.05270422250032425,0.006571083795279264,-0.04143079742789268,1046668.41073225,-5.428466796875,31.29190063476562,-104.6172790527344,1046668.39726625,-1.506991871077391,0.04512817901229277,0.07245014260029105,0.04282959550619125,0.02137167006731033,-0.04089034348726273,-0.001827295869588852,-0.002610161900520325,0.007683277130126953,2,0.04183323978272831,-0.008329364490131183,-0.6829736664337205,0.7291964985327645,0.04499451443552971,-0.07238677889108658,-0.9963611960411072,-16.88620758056641,-3.313220977783203,-33.72926330566406,-1,2,1046668.39793425,2,0,1617672465.931341,1617670944.349944,97,1.562887,0,0,65.01641,0,0,1617672335.235306,1046665.682738,0,-1.466492,98.15582,1617672464.09485,587422867,1685438189,0,0,1,1617672463.093537,1,0.14,1617672465.930686,-22.87011,-30.60449,0
1617672465.978964,87,0,0,0,0,0,0,0,0,0,1617672465.959295,-16.82991790771484,-3.484395980834961,-33.36302947998047,36.89111328125,43.92068481445312,16.94626426696777,1046668.45330225,0.05322265625,-0.08074951171875,-0.9979705810546875,1046668.42217125,0.06333662569522858,0.0687449723482132,-0.04686950519680977,1046668.41073225,-5.428466796875,31.29190063476562,-104.6172790527344,1046668.39726625,-1.506991871077391,0.04512817901229277,0.07245014260029105,0.04282959550619125,0.02137167006731033,-0.04089034348726273,-0.001827295869588852,-0.002610161900520325,0.007683277130126953,2,0.04183323978272831,-0.008329364490131183,-0.6829736664337205,0.7291964985327645,0.04499451443552971,-0.07238677889108658,-0.9963611960411072,-16.88620758056641,-3.313220977783203,-33.72926330566406,-1,2,1046668.39793425,2,0,1617672465.931341,1617670944.349944,97,1.562887,0,0,65.01641,0,0,1617672335.235306,1046665.682738,0,-1.466492,98.15582,1617672464.09485,587422867,1685438189,0,0,1,1617672463.093537,1,0.14,1617672465.97227,-22.87011,-31.04251,0
1617672466.018813,88,0,0,0,0,0,0,0,0,0,1617672465.99912,-16.82857131958008,-3.694957733154297,-33.30722808837891,36.98360061645508,44.0131721496582,16.94627571105957,1046668.48692525,0.0518341064453125,-0.0904083251953125,-0.988372802734375,1046668.45579225,0.0844898521900177,0.03393959254026413,-0.03933408856391907,1046668.47071525,-5.397628784179688,31.01934814453125,-104.5160217285156,1046668.45703925,-1.509614390620562,0.04793413280370185,0.07575388374215296,0.06998822093009949,0.02890586107969284,-0.03921318426728249,0.004605166614055634,-0.006548158824443817,0.0007169842720031738,2,0.04398282738295792,-0.008494153950252759,-0.6837991662453539,0.7282940113247744,0.04777835682034492,-0.07568144798278809,-0.9959867000579834,-16.81174278259277,-3.741472244262695,-33.19518280029297,-1,2,1046668.39793425,2,0,1617672465.931341,1617670944.349944,97,1.562887,0,0,65.01641,0,0,1617672335.235306,1046665.682738,0,-1.466492,98.15582,1617672464.09485,587422867,1685438189,0,0,1,1617672463.093537,1,0.14,1617672465.997381,-22.87011,-29.07222,0
1617672466.048662,89,0,0,0,0,0,0,0,0,0,1617672466.039016,-16.85206604003906,-3.60247802734375,-33.67839050292969,37.03260803222656,44.06217956542969,16.9462833404541,1046668.52054625,0.0562286376953125,-0.0868377685546875,-1.012603759765625,1046668.48941525,0.01858806610107422,0.02353595197200775,-0.02206322364509106,1046668.47071525,-5.397628784179688,31.01934814453125,-104.5160217285156,1046668.45703925,-1.509614390620562,0.04793413280370185,0.07575388374215296,0.06998822093009949,0.02890586107969284,-0.03921318426728249,0.004605166614055634,-0.006548158824443817,0.0007169842720031738,2,0.04398282738295792,-0.008494153950252759,-0.6837991662453539,0.7282940113247744,0.04777835682034492,-0.07568144798278809,-0.9959867000579834,-16.81174278259277,-3.741472244262695,-33.19518280029297,-1,2,1046668.39793425,2,0,1617672465.931341,1617670944.349944,97,1.562887,0,0,65.01641,0,0,1617672335.235306,1046665.682738,0,-1.466492,98.15582,1617672464.09485,587422867,1685438189,0,0,1,1617672463.093537,1,0.14,1617672466.043905,-22.66342,-29.04918,0
1617672466.078928,90,0,0,0,0,0,0,0,0,0,1617672466.059063,-16.79298782348633,-3.675411224365234,-33.58289337158203,37.05468368530273,44.08425521850586,16.9462890625,1046668.55416725,0.049072265625,-0.0947113037109375,-0.992828369140625,1046668.52303625,-0.05206240341067314,-0.03247059136629105,-0.02353968098759651,1046668.53069425,-5.33880615234375,31.00094604492188,-104.7014312744141,1046668.51681125,-1.511118266634321,0.04877378787864475,0.07616203972933504,-0.06822583079338074,-0.02293136157095432,-0.01840844750404358,0.008576925843954086,-0.00997113436460495,-0.01787859201431274,2,0.0444119987708578,-0.008361614793681865,-0.6843191529120392,0.727780835472565,0.04861311614513397,-0.07608842849731445,-0.9959152936935425,-16.8345775604248,-3.626537322998047,-33.69770050048828,-1,2,1046668.39793425,2,0,1617672465.931341,1617670944.349944,97,1.562887,0,0,65.01641,0,0,1617672335.235306,1046665.682738,0,-1.466492,98.15582,1617672464.09485,587422867,1685438189,0,0,1,1617672463.093537,1,0.14,1617672466.064292,-22.66342,-28.66946,0
1617672466.1186,91,0,0,0,0,0,0,0,0,0,1617672466.098946,-16.82976150512695,-3.623556137084961,-33.50941467285156,37.13050079345703,44.16007232666016,16.94629859924316,1046668.58779025,0.0596771240234375,-0.1032867431640625,-1.002914428710938,1046668.55665925,-0.02522705867886543,-0.007635016459971666,-0.04027125611901283,1046668.59068125,-5.411590576171875,31.05000305175781,-104.6304931640625,1046668.57658325,-1.51291624527034,0.04760808579592433,0.07416638720013026,-0.01819186471402645,0.001518473029136658,-0.0333702489733696,0.01185174286365509,-0.02851694077253342,-0.006915450096130371,2,0.04328085790384941,-0.008140534349261172,-0.6850418930455997,0.7271713281358334,0.04745927453041077,-0.07409841567277908,-0.9961209893226624,-16.84409141540527,-3.566951751708984,-33.53298950195312,-1,2,1046668.39793425,2,0,1617672465.931341,1617670944.349944,97,1.562887,0,0,65.01641,0,0,1617672335.235306,1046665.682738,0,-1.466492,98.15582,1617672464.09485,587422867,1685438189,0,0,1,1617672463.093537,1,0.14,1617672466.104016,-22.66342,-28.76251,0
1617672466.153081,92,0,0,0,0,0,0,0,0,0,1617672466.13878,-16.80205726623535,-3.544601440429688,-33.51170349121094,37.20449066162109,44.23406219482422,16.94631004333496,1046668.62141125,0.0618438720703125,-0.1065521240234375,-1.014617919921875,1046668.59028025,0.000720118754543364,0.02414022386074066,-0.03212384879589081,1046668.59068125,-5.411590576171875,31.05000305175781,-104.6304931640625,1046668.57658325,-1.51291624527034,0.04760808579592433,0.07416638720013026,-0.01819186471402645,0.001518473029136658,-0.0333702489733696,0.01185174286365509,-0.02851694077253342,-0.006915450096130371,2,0.04328085790384941,-0.008140534349261172,-0.6850418930455997,0.7271713281358334,0.04745927453041077,-0.07409841567277908,-0.9961209893226624,-16.84409141540527,-3.566951751708984,-33.53298950195312,-1,2,1046668.39793425,2,0,1617672465.931341,1617670944.349944,97,1.562887,0,0,65.01641,0,0,1617672335.235306,1046665.682738,0,-1.466492,98.15582,1617672464.09485,587422867,1685438189,0,0,1,1617672463.093537,1,0.14,1617672466.130831,-22.66342,-29.43299,0
1617672466.178224,93,0,0,0,0,0,0,0,0,0,1617672466.158711,-16.80434417724609,-3.585477828979492,-33.61595153808594,37.25191879272461,44.28149032592773,16.94631195068359,1046668.65503325,0.062896728515625,-0.1346435546875,-0.9970855712890625,1046668.62390125,0.0350932739675045,-0.009292035363614559,-0.04610331356525421,1046668.65066925,-5.303466796875,30.9996337890625,-104.6566467285156,1046668.63635625,-1.515037406241689,0.04826773388424412,0.0754600158242934,0.01524782925844193,-0.02496401593089104,-0.02916377224028111,0.01373228803277016,-0.05183935910463333,-0.006494224071502686,2,0.04396746709838591,-0.008391256927944492,-0.6857704732989089,0.7264401807767762,0.0481116883456707,-0.07538842409849167,-0.99599289894104,-16.80832290649414,-3.582717895507812,-33.62001037597656,-1,2,1046668.39793425,2,0,1617672465.931341,1617670944.349944,97,1.562887,0,0,65.01641,0,0,1617672335.235306,1046665.682738,0,-1.466492,98.15582,1617672464.09485,587422867,1685438189,0,0,1,1617672463.093537,1,0.14,1617672466.164562,-22.66342,-28.01577,0
1617672466.222861,94,0,0,0,0,0,0,0,0,0,1617672466.21825,-16.8137321472168,-3.706577301025391,-33.60554504394531,37.15080642700195,44.18037796020508,16.94631767272949,1046668.68865625,0.064849853515625,-0.11578369140625,-1.003097534179688,1046668.65752525,-0.006935936864465475,-0.007679491303861141,0.02188452519476414,1046668.65066925,-5.303466796875,30.9996337890625,-104.6566467285156,1046668.63635625,-1.515037406241689,0.04826773388424412,0.0754600158242934,0.01524782925844193,-0.02496401593089104,-0.02916377224028111,0.01373228803277016,-0.05183935910463333,-0.006494224071502686,2,0.04396746709838591,-0.008391256927944492,-0.6857704732989089,0.7264401807767762,0.0481116883456707,-0.07538842409849167,-0.99599289894104,-16.80832290649414,-3.582717895507812,-33.62001037597656,-1,2,1046668.39793425,2,0,1617672465.931341,1617670944.349944,97,1.562887,0,0,65.01641,0,0,1617672335.235306,1046665.682738,0,-1.466492,98.15582,1617672464.09485,587422867,1685438189,0,0,1,1617672463.093537,1,0.14,1617672466.19754,-22.66342,-28.26633,0
1617672466.24823,95,0,0,0,0,0,0,0,0,0,1617672466.238377,-16.8471565246582,-3.708868026733398,-33.46409606933594,37.05365753173828,44.08322906494141,16.94631767272949,1046668.72227725,0.0690155029296875,-0.0858917236328125,-1.003631591796875,1046668.69114625,-0.006165750324726105,0.01527109835296869,0.08602649718523026,1046668.71065325,-5.403533935546875,30.96990966796875,-104.5913391113281,1046668.69612825,-1.512667724227523,0.04855317594425196,0.07634055052481636,-0.01523076836019754,0.001188246533274651,0.08940067142248154,0.0207601934671402,-0.01986394077539444,-0.01547056436538696,2,0.04439475869904892,-0.008537490336208946,-0.6848837661493268,0.7272485126738968,0.04839274659752846,-0.07626642286777496,-0.9959124326705933,-16.86220169067383,-3.66607666015625,-33.55702209472656,-1,2,1046668.39793425,2,0,1617672465.931341,1617670944.349944,97,1.562887,0,0,65.01641,0,0,1617672335.235306,1046665.682738,0,-1.466492,98.15582,1617672464.09485,587422867,1685438189,0,0,1,1617672463.093537,1,0.14,1617672466.230348,-22.66342,-27.74849,0
1617672466.287573,96,0,0,0,0,0,0,0,0,0,1617672466.278318,-16.81515121459961,-3.588258743286133,-33.48211669921875,36.92004013061523,43.94961166381836,16.94630241394043,1046668.75590025,0.06610107421875,-0.0938720703125,-0.979736328125,1046668.72476725,-0.0240161195397377,-0.03593376651406288,0.05980181321501732,1046668.71065325,-5.403533935546875,30.96990966796875,-104.5913391113281,1046668.69612825,-1.512667724227523,0.04855317594425196,0.07634055052481636,-0.01523076836019754,0.001188246533274651,0.08940067142248154,0.0207601934671402,-0.01986394077539444,-0.01547056436538696,2,0.04439475869904892,-0.008537490336208946,-0.6848837661493268,0.7272485126738968,0.04839274659752846,-0.07626642286777496,-0.9959124326705933,-16.86220169067383,-3.66607666015625,-33.55702209472656,-1,2,1046668.39793425,2,0,1617672465.931341,1617670944.349944,97,1.562887,0,0,65.01641,0,0,1617672335.235306,1046665.682738,0,-1.466492,98.15582,1617672464.09485,587422867,1685438189,0,0,1,1617672463.093537,1,0.14,1617672466.271937,-22.59064,-25.35942,0
1617672466.318125,97,0,0,0,0,0,0,0,0,0,1617672466.298069,-16.75405120849609,-3.433055877685547,-33.36813354492188,36.86516189575195,43.89473342895508,16.9462833404541,1046668.78952125,0.0721893310546875,-0.091156005859375,-0.981170654296875,1046668.75839025,-0.04592328146100044,0.01247185003012419,0.04672569409012794,1046668.77063225,-5.30828857421875,31.30155944824219,-104.5093841552734,1046668.75590025,-1.508835955098192,0.04741562560284766,0.07726441418149069,-0.05770741403102875,-0.003749145194888115,0.04860014468431473,0.02000439539551735,-0.01703546196222305,0.01901310682296753,2,0.04435823759036019,-0.009183145075011351,-0.6834942161489397,0.7285491056698117,0.04725645482540131,-0.07718756049871445,-0.99589604139328,-16.77448081970215,-3.530620574951172,-33.42585754394531,-1,2,1046668.39793425,2,0,1617672465.931341,1617670944.349944,97,1.562887,0,0,65.01641,0,0,1617672335.235306,1046665.682738,0,-1.466492,98.15582,1617672464.09485,587422867,1685438189,0,0,1,1617672463.093537,1,0.14,1617672466.297417,-22.59064,-25.69212,0
1617672466.347362,98,0,0,0,0,0,0,0,0,0,1617672466.338067,-16.81402969360352,-3.359367370605469,-33.66168975830078,36.81130599975586,43.84087753295898,16.94623184204102,1046668.82314225,0.0771942138671875,-0.102813720703125,-0.9810333251953125,1046668.79201125,0.01247611083090305,0.05391915887594223,0.02123684622347355,1046668.77063225,-5.30828857421875,31.30155944824219,-104.5093841552734,1046668.75590025,-1.508835955098192,0.04741562560284766,0.07726441418149069,-0.05770741403102875,-0.003749145194888115,0.04860014468431473,0.02000439539551735,-0.01703546196222305,0.01901310682296753,2,0.04435823759036019,-0.009183145075011351,-0.6834942161489397,0.7285491056698117,0.04725645482540131,-0.07718756049871445,-0.99589604139328,-16.77448081970215,-3.530620574951172,-33.42585754394531,-1,2,1046668.39793425,2,0,1617672465.931341,1617670944.349944,97,1.562887,0,0,65.01641,0,0,1617672335.235306,1046665.682738,0,-1.466492,98.15582,1617672464.09485,587422867,1685438189,0,0,1,1617672463.093537,1,0.14,1617672466.343903,-22.59064,-26.4907,0
1617672466.403385,99,0,0,0,0,0,0,0,0,0,1617672466.397832,-16.66924858093262,-3.38865852355957,-33.81068420410156,36.71775817871094,43.74732971191406,16.94614219665527,1046668.85676525,0.0821075439453125,-0.1065673828125,-0.999969482421875,1046668.85925525,0.03571618720889091,0.1210606470704079,0.03767627105116844,1046668.83061525,-5.247512817382812,31.1737060546875,-104.8109436035156,1046668.81567225,-1.507116253017795,0.05104670837457159,0.07726057300294716,-0.009520413354039192,0.08503688126802444,0.01488988287746906,0.02665768563747406,-0.02599620074033737,0.01401346921920776,2,0.0456044201418163,-0.007819894834086155,-0.6827859327824494,0.7291519488410154,0.0508723296225071,-0.07718373090028763,-0.9957181811332703,-16.82200622558594,-3.39898681640625,-33.71322631835938,-1,2,1046668.39793425,2,0,1617672465.931341,1617670944.349944,97,1.562887,0,0,65.01641,0,0,1617672335.235306,1046665.682738,0,-1.466492,98.15582,1617672464.09485,587422867,1685438189,0,0,1,1617672463.093537,1,0.14,1617672466.403338,-22.59064,-27.51028,0
1617672466.417516,100,0,0,0,0,0,0,0,0,0,1617672466.397832,-16.66924858093262,-3.38865852355957,-33.81068420410156,36.71775817871094,43.74732971191406,16.94614219665527,1046668.89038725,0.072509765625,-0.096221923828125,-1.008468627929688,1046668.85925525,0.03571618720889091,0.1210606470704079,0.03767627105116844,1046668.89060325,-5.050079345703125,31.32725524902344,-104.9154968261719,1046668.87544525,-1.505402293529777,0.05801110757586921,0.07899038812224507,0.05147180706262589,0.1053915247321129,0.03172575309872627,0.01838945597410202,-0.01838177442550659,-0.01631540060043335,2,0.04861607590727698,-0.005830956719419578,-0.6819564779045169,0.7297519578655389,0.05779779329895973,-0.07890827208757401,-0.9952049255371094,-16.61346817016602,-3.347251892089844,-33.85160064697266,-1,2,1046668.39793425,2,0,1617672465.931341,1617670944.349944,97,1.562887,0,0,65.01641,0,0,1617672335.235306,1046665.682738,0,-1.466492,98.15582,1617672464.09485,587422867,1685438189,0,0,1,1617672463.093537,1,0.14,1617672466.403338,-22.59064,-27.51028,0
1617672466.452074,101,0,0,0,0,0,0,0,0,0,1617672466.437356,-16.48062705993652,-3.405050277709961,-33.81449127197266,36.69207000732422,43.72164154052734,16.94606399536133,1046668.92400825,0.0689239501953125,-0.0979766845703125,-0.979644775390625,1046668.89287725,0.08205439150333405,0.09010033309459686,0.01165132969617844,1046668.89060325,-5.050079345703125,31.32725524902344,-104.9154968261719,1046668.87544525,-1.505402293529777,0.05801110757586921,0.07899038812224507,0.05147180706262589,0.1053915247321129,0.03172575309872627,0.01838945597410202,-0.01838177442550659,-0.01631540060043335,2,0.04861607590727698,-0.005830956719419578,-0.6819564779045169,0.7297519578655389,0.05779779329895973,-0.07890827208757401,-0.9952049255371094,-16.61346817016602,-3.347251892089844,-33.85160064697266,-1,2,1046668.39793425,2,0,1617672465.931341,1617670944.349944,97,1.562887,0,0,65.01641,0,0,1617672335.235306,1046665.682738,0,-1.466492,98.15582,1617672464.09485,587422867,1685438189,0,0,1,1617672463.093537,1,0.14,1617672466.430822,-22.59064,-28.6271,0
1617672466.487209,102,0,0,0,0,0,0,0,0,0,1617672466.477558,-16.3598804473877,-3.409832000732422,-33.93332672119141,36.70412826538086,43.73369979858398,16.94596672058105,1046668.95763125,0.0667724609375,-0.08197021484375,-0.977813720703125,1046668.92650025,0.006388390902429819,0.1001276671886444,-0.007314371876418591,1046668.95058825,-4.89404296875,31.28352355957031,-105.0306396484375,1046668.93521725,-1.505262906133331,0.06435272560093312,0.08286527811018995,-0.03792227432131767,0.1005880907177925,-0.00536605529487133,0.004393897950649261,-0.009316310286521912,0.01624965667724609,2,0.05218894025672791,-0.004837922426748121,-0.681649032632796,0.7297996996016277,0.0640876516699791,-0.08277047425508499,-0.9945058226585388,-16.43076705932617,-3.403682708740234,-34.10150146484375,-1,2,1046668.39793425,2,0,1617672465.931341,1617670944.349944,97,1.562887,0,0,65.01641,0,0,1617672335.235306,1046665.682738,0,-1.466492,98.15582,1617672464.09485,587422867,1685438189,0,0,1,1617672463.093537,1,0.14,1617672466.46315,-22.59064,-29.0954,0
1617672466.520009,103,0,0,0,0,0,0,0,0,0,1617672466.51702,-16.05383682250977,-3.218351364135742,-34.08759307861328,36.7943000793457,43.82387161254883,16.94585227966309,1046668.99125225,0.0668792724609375,-0.078155517578125,-0.980712890625,1046668.96012125,-0.06168839707970619,0.09506739675998688,-0.02731604315340519,1046668.95058825,-4.89404296875,31.28352355957031,-105.0306396484375,1046668.93521725,-1.505262906133331,0.06435272560093312,0.08286527811018995,-0.03792227432131767,0.1005880907177925,-0.00536605529487133,0.004393897950649261,-0.009316310286521912,0.01624965667724609,2,0.05218894025672791,-0.004837922426748121,-0.681649032632796,0.7297996996016277,0.0640876516699791,-0.08277047425508499,-0.9945058226585388,-16.43076705932617,-3.403682708740234,-34.10150146484375,-1,2,1046668.39793425,2,0,1617672465.931341,1617670944.349944,97,1.562887,0,0,65.01641,0,0,1617672335.235306,1046665.682738,0,-1.466492,98.15582,1617672464.09485,587422867,1685438189,0,0,1,1617672463.093537,1,0.14,1617672466.497401,-22.59064,-29.12405,0
1617672466.556954,104,0,0,0,0,0,0,0,0,0,1617672466.537604,-15.96980094909668,-3.247989654541016,-33.95419311523438,36.88092041015625,43.91049194335938,16.94579315185547,1046669.02487525,0.0433197021484375,-0.10809326171875,-0.9454345703125,1046668.99374225,-0.03324557095766068,0.0003083940537180752,-0.07898989319801331,1046669.01057325,-4.500213623046875,31.44097900390625,-105.056396484375,1046668.99498925,-1.50723957908323,0.06883931264474406,0.07999548719470165,-0.04511706903576851,-0.004480003844946623,-0.07538881152868271,-0.00626324862241745,-0.007827840745449066,0.02120512723922729,2,0.05267126607253786,-0.002271898647192832,-0.6823271244101382,0.7291436601198799,0.06856498867273331,-0.07991019636392593,-0.9944411516189575,-16.05010986328125,-3.230819702148438,-34.11006164550781,-1,2,1046668.39793425,2,0,1617672465.931341,1617670944.349944,97,1.562887,0,0,65.01641,0,0,1617672335.235306,1046665.682738,0,-1.466492,98.15582,1617672464.09485,587422867,1685438189,0,0,1,1617672463.093537,1,0.14,1617672466.53067,-22.59064,-29.47863,0
1617672466.586403,105,0,0,0,0,0,0,0,0,0,1617672466.576833,-15.90896320343018,-3.161653518676758,-33.83934020996094,37.06779861450195,44.09737014770508,16.94570541381836,1046669.05849625,0.02099609375,-0.1385345458984375,-0.9098358154296875,1046669.02736525,-0.04996835812926292,-0.01724769547581673,-0.08876954764127731,1046669.01057325,-4.500213623046875,31.44097900390625,-105.056396484375,1046668.99498925,-1.50723957908323,0.06883931264474406,0.07999548719470165,-0.04511706903576851,-0.004480003844946623,-0.07538881152868271,-0.00626324862241745,-0.007827840745449066,0.02120512723922729,2,0.05267126607253786,-0.002271898647192832,-0.6823271244101382,0.7291436601198799,0.06856498867273331,-0.07991019636392593,-0.9944411516189575,-16.05010986328125,-3.230819702148438,-34.11006164550781,-1,2,1046669.03566525,1,2,1617672466.569072,1617670944.349944,97,1.562887,0,0,65.01641,0,0,1617672335.235306,1046666.631745,0,-1.445343,98.15557,1617672464.09485,587422867,1685438189,0,0,1,1617672463.093537,1,0.14,1617672466.581463,-22.59064,-29.77803,0
1617672466.617132,106,0,0,0,0,0,0,0,0,0,1617672466.597185,-15.81995391845703,-3.146774291992188,-33.70478057861328,37.11460494995117,44.1441764831543,16.9456901550293,1046669.09211825,0.0211944580078125,-0.134918212890625,-1.013992309570312,1046669.06098625,-0.1612778455018997,0.2710709273815155,-0.05154787749052048,1046669.07056025,-4.346923828125,31.55686950683594,-104.8504638671875,1046669.05476125,-1.51200198945511,0.07006334012295745,0.07578590457142963,-0.1488466411828995,0.191032662987709,-0.07281157374382019,-0.05161650478839874,-0.069412961602211,0.07993412017822266,2,0.05155701133727675,-0.0005080366468253571,-0.6841388540400668,0.7275270825270532,0.0698050856590271,-0.0757133811712265,-0.9946832060813904,-15.90892028808594,-3.166488647460938,-33.75136566162109,-1,2,1046669.03566525,1,2,1617672466.569072,1617670944.349944,97,1.562887,0,0,65.01641,0,0,1617672335.235306,1046666.631745,0,-1.445343,98.15557,1617672464.09485,587422867,1685438189,0,0,1,1617672463.093537,1,0.14,1617672466.59741,-22.59064,-29.7934,0
1617672466.656269,107,0,0,0,0,0,0,0,0,0,1617672466.63686,-15.49076366424561,-2.751943588256836,-34.46369934082031,37.07029342651367,44.0998649597168,16.94564056396484,1046669.12574125,0.0190582275390625,-0.1110382080078125,-1.050872802734375,1046669.09461025,-0.12472914904356,0.3223764598369598,0.008118646219372749,1046669.13053825,-3.727340698242188,31.97654724121094,-105.8095092773438,1046669.11453425,-1.511713419068503,0.08626099835995191,0.06895196398804451,-0.08154959231615067,0.1905911415815353,-0.02607899904251099,-0.06713514029979706,-0.04317846894264221,-0.05921667814254761,2,0.05461632670192607,0.007736177876213685,-0.6837857442459807,0.7275948497247686,0.08594933897256851,-0.06889733672142029,-0.9939144253730774,-15.3718147277832,-2.667156219482422,-34.58573150634766,-1,2,1046669.03566525,1,2,1617672466.569072,1617670944.349944,97,1.562887,0,0,65.01641,0,0,1617672335.235306,1046666.631745,0,-1.445343,98.15557,1617672464.09485,587422867,1685438189,0,0,1,1617672463.093537,1,0.14,1617672466.648109,-22.59064,-30.51464,0
1617672466.690861,108,0,0,0,0,0,0,0,0,0,1617672466.676788,-15.022780418396,-2.715095520019531,-34.66496276855469,37.19505310058594,44.22462463378906,16.94548606872559,1046669.15936225,0.0213470458984375,-0.1300506591796875,-0.9934539794921875,1046669.12823125,-0.07986900210380554,0.1163535043597221,-0.07220309227705002,1046669.13053825,-3.727340698242188,31.97654724121094,-105.8095092773438,1046669.11453425,-1.511713419068503,0.08626099835995191,0.06895196398804451,-0.08154959231615067,0.1905911415815353,-0.02607899904251099,-0.06713514029979706,-0.04317846894264221,-0.05921667814254761,2,0.05461632670192607,0.007736177876213685,-0.6837857442459807,0.7275948497247686,0.08594933897256851,-0.06889733672142029,-0.9939144253730774,-15.3718147277832,-2.667156219482422,-34.58573150634766,-1,2,1046669.03566525,1,2,1617672466.569072,1617670944.349944,97,1.562887,0,0,65.01641,0,0,1617672335.235306,1046666.631745,0,-1.445343,98.15557,1617672464.09485,587422867,1685438189,0,0,1,1617672463.093537,1,0.14,1617672466.664178,-22.59064,-30.81805,0
1617672466.716677,109,0,0,0,0,0,0,0,0,0,1617672466.69649,-14.9017276763916,-2.767436981201172,-34.785400390625,37.2777214050293,44.30729293823242,16.94536399841309,1046669.19298325,0.0578460693359375,-0.1243896484375,-1.040481567382812,1046669.16185225,-0.1570886820554733,0.2262083739042282,-0.09266681969165802,1046669.19052225,-3.344970703125,31.94163513183594,-105.8821411132812,1046669.17430625,-1.515574982325369,0.09188603706887188,0.06529019917541767,-0.1505086719989777,0.2614090740680695,-0.07112498581409454,-0.04407583177089691,-0.06448639184236526,-0.0318833589553833,2,0.05523226246519711,0.01093174618153364,-0.6851361558647823,0.7262357902057037,0.09156128764152527,-0.06524382531642914,-0.9936597943305969,-14.83435726165771,-2.77256965637207,-34.7633056640625,-1,2,1046669.03566525,1,2,1617672466.569072,1617670944.349944,97,1.562887,0,0,65.01641,0,0,1617672335.235306,1046666.631745,0,-1.445343,98.15557,1617672464.09485,587422867,1685438189,0,0,1,1617672463.093537,1,0.14,1617672466.699092,-22.59064,-30.88814,0
1617672466.765091,110,0,0,0,0,0,0,0,0,0,1617672466.756201,-14.70576953887939,-2.283321380615234,-35.15547943115234,37.40437316894531,44.43394470214844,16.94531631469727,1046669.22660625,0.070953369140625,-0.0955352783203125,-1.0618896484375,1046669.22909625,-0.1251315474510193,-0.05524807423353195,-0.05857888981699944,1046669.19052225,-3.344970703125,31.94163513183594,-105.8821411132812,1046669.17430625,-1.515574982325369,0.09188603706887188,0.06529019917541767,-0.1505086719989777,0.2614090740680695,-0.07112498581409454,-0.04407583177089691,-0.06448639184236526,-0.0318833589553833,2,0.05523226246519711,0.01093174618153364,-0.6851361558647823,0.7262357902057037,0.09156128764152527,-0.06524382531642914,-0.9936597943305969,-14.83435726165771,-2.77256965637207,-34.7633056640625,-1,2,1046669.03566525,1,2,1617672466.569072,1617670944.349944,97,1.562887,0,0,65.01641,0,0,1617672335.235306,1046666.631745,0,-1.445343,98.15557,1617672464.09485,587422867,1685438189,0,0,1,1617672463.093537,1,0.14,1617672466.765073,-22.59064,-31.3737,0
1617672466.78613,111,0,0,0,0,0,0,0,0,0,1617672466.776229,-14.6461877822876,-2.342903137207031,-35.15605926513672,37.47678756713867,44.5063591003418,16.94526481628418,1046669.26022725,0.050506591796875,-0.07220458984375,-1.004486083984375,1046669.22909625,-0.1251315474510193,-0.05524807423353195,-0.05857888981699944,1046669.25050825,-3.204483032226562,32.33094787597656,-106.2799530029297,1046669.23407825,-1.517724243678833,0.09807965646620316,0.05898981893031965,-0.1479192823171616,-0.09877327084541321,-0.06819877028465271,-0.03331418335437775,-0.02110725268721581,-0.04944467544555664,2,0.05508917890260764,0.01528652256415311,-0.6859210832779878,0.7254265773407866,0.0977521613240242,-0.05895561352372169,-0.9934629797935486,-14.65641403198242,-2.287734985351562,-35.25740814208984,-1,2,1046669.03566525,1,2,1617672466.569072,1617670944.349944,97,1.562887,0,0,65.01641,0,0,1617672335.235306,1046666.631745,0,-1.445343,98.15557,1617672464.09485,587422867,1685438189,0,0,1,1617672463.093537,1,0.14,1617672466.765073,-22.59064,-31.3737,0
1617672466.825516,112,0,0,0,0,0,0,0,0,0,1617672466.816368,-14.85321617126465,-2.213691711425781,-35.12197875976562,37.79762268066406,44.82719421386719,16.94505882263184,1046669.29385025,0.0427703857421875,-0.089996337890625,-0.9729461669921875,1046669.26271725,-0.1770991384983063,-0.1471748054027557,-0.1579504907131195,1046669.25050825,-3.204483032226562,32.33094787597656,-106.2799530029297,1046669.23407825,-1.517724243678833,0.09807965646620316,0.05898981893031965,-0.1479192823171616,-0.09877327084541321,-0.06819877028465271,-0.03331418335437775,-0.02110725268721581,-0.04944467544555664,2,0.05508917890260764,0.01528652256415311,-0.6859210832779878,0.7254265773407866,0.0977521613240242,-0.05895561352372169,-0.9934629797935486,-14.65641403198242,-2.287734985351562,-35.25740814208984,-1,2,1046669.03566525,1,2,1617672466.569072,1617670944.349944,97,1.562887,0,0,65.01641,0,0,1617672335.235306,1046666.631745,0,-1.445343,98.15557,1617672464.09485,587422867,1685438189,0,0,1,1617672463.093537,1,0.14,1617672466.797298,-22.59064,-30.22649,0
1617672466.855498,113,0,0,0,0,0,0,0,0,0,1617672466.835836,-14.89900588989258,-2.234546661376953,-34.98612213134766,37.96205902099609,44.99163055419922,16.94490051269531,1046669.327472667,0.0698089599609375,-0.0886383056640625,-1.003921508789062,1046669.29634025,-0.1096641793847084,0.05854693427681923,-0.1572314351797104,1046669.31048825,-3.476348876953125,32.43931579589844,-106.1278076171875,1046669.29385025,-1.525137227325244,0.08984424669654852,0.0512899661185837,-0.1301006376743317,0.04026805981993675,-0.1630513221025467,-0.03876303881406784,-0.04043783992528915,0.01272338628768921,2,0.04953293744086849,0.01476471844471394,-0.6890245849377608,0.7228926147263728,0.08960543572902679,-0.05126748234033585,-0.9946569800376892,-14.86135482788086,-2.179397583007812,-35.04274749755859,-1,2,1046669.03566525,1,2,1617672466.569072,1617670944.349944,97,1.562887,0,0,65.01641,0,0,1617672335.235306,1046666.631745,0,-1.445343,98.15557,1617672464.09485,587422867,1685438189,0,0,1,1617672463.093537,1,0.14,1617672466.830609,-22.59064,-31.04135,0
1617672466.885294,114,0,0,0,0,0,0,0,0,0,1617672466.87586,-14.8577709197998,-2.406707763671875,-35.24114990234375,38.19176483154297,45.22133636474609,16.94453811645508,1046669.361093667,0.0813751220703125,-0.07305908203125,-1.004608154296875,1046669.329962667,0.06520137190818787,0.1308381706476212,-0.09831378608942032,1046669.31048825,-3.476348876953125,32.43931579589844,-106.1278076171875,1046669.29385025,-1.525137227325244,0.08984424669654852,0.0512899661185837,-0.1301006376743317,0.04026805981993675,-0.1630513221025467,-0.03876303881406784,-0.04043783992528915,0.01272338628768921,2,0.04953293744086849,0.01476471844471394,-0.6890245849377608,0.7228926147263728,0.08960543572902679,-0.05126748234033585,-0.9946569800376892,-14.86135482788086,-2.179397583007812,-35.04274749755859,-1,2,1046669.03566525,1,2,1617672466.569072,1617670944.349944,97,1.562887,0,0,65.01641,0,0,1617672335.235306,1046666.631745,0,-1.445343,98.15557,1617672464.09485,587422867,1685438189,0,0,1,1617672463.093537,1,0.14,1617672466.872386,-22.59064,-31.39417,0
