loggingTime,loggingSample,locationTimestamp_since1970,locationLatitude,locationLongitude,locationAltitude,locationSpeed,locationCourse,locationVerticalAccuracy,locationHorizontalAccuracy,locationFloor,locationHeadingTimestamp_since1970,locationHeadingX,locationHeadingY,locationHeadingZ,locationTrueHeading,locationMagneticHeading,locationHeadingAccuracy,accelerometerTimestamp_sinceReboot,accelerometerAccelerationX,accelerometerAccelerationY,accelerometerAccelerationZ,gyroTimestamp_sinceReboot,gyroRotationX,gyroRotationY,gyroRotationZ,magnetometerTimestamp_sinceReboot,magnetometerX,magnetometerY,magnetometerZ,motionTimestamp_sinceReboot,motionYaw,motionRoll,motionPitch,motionRotationRateX,motionRotationRateY,motionRotationRateZ,motionUserAccelerationX,motionUserAccelerationY,motionUserAccelerationZ,motionAttitudeReferenceFrame,motionQuaternionX,motionQuaternionY,motionQuaternionZ,motionQuaternionW,motionGravityX,motionGravityY,motionGravityZ,motionMagneticFieldX,motionMagneticFieldY,motionMagneticFieldZ,motionHeading,motionMagneticFieldCalibrationAccuracy,activityTimestamp_sinceReboot,activity,activityActivityConfidence,activityActivityStartDate,pedometerStartDate,pedometerNumberofSteps,pedometerAverageActivePace,pedometerCurrentPace,pedometerCurrentCadence,pedometerDistance,pedometerFloorAscended,pedometerFloorDescended,pedometerEndDate,altimeterTimestamp_sinceReboot,altimeterReset,altimeterRelativeAltitude,altimeterPressure,IP_Timestamp_since1970,IP_en0,IP_pdp_ip0,deviceID,deviceOrientationTimeStamp_since1970,deviceOrientation,batteryTimeStamp_since1970,batteryState,batteryLevel,avAudioRecorder_Timestamp_since1970,avAudioRecorderPeakPower,avAudioRecorderAveragePower,label
1617671998.346287,1,0,0,0,0,0,0,0,0,0,1617671998.343021,6.104859352111816,12.43532562255859,-39.61592102050781,304.6791381835938,311.7087097167969,15.44055461883545,1046200.805089417,0.074005126953125,-0.20703125,-0.99371337890625,1046200.773958417,0.1544942408800125,0.1165258139371872,0.05678738281130791,1046200.766821417,17.37214660644531,47.25732421875,-110.6519775390625,1046200.737847417,0.09102718431731235,0.05945872048158658,0.1923920124231703,0.06002188101410866,0.09120123088359833,0.007420985959470272,0.008262045681476593,-0.003998473286628723,-0.008817076683044434,2,0.09455968392225506,0.03392495240394233,0.0481195810977591,0.9937766391288074,0.05832730606198311,-0.1912073194980621,-0.9798151254653931,5.82219409942627,12.55334854125977,-39.69135284423828,-1,2,1046200.738577417,4,2,1617671998.271984,1617670944.349944,44,1.9282,0,0,30.29663,0,0,1617671919.538014,1046197.771647,0,-1.162628,98.15225,0,0,0,0,0,1,1617671998.320898,1,0.16,1617671998.300833,-22.8936,-29.05228,0
1617671998.372762,2,0,0,0,0,0,0,0,0,0,1617671998.363386,6.187676429748535,12.36888122558594,-39.66637420654297,304.5567932128906,311.5863647460938,15.44060802459717,1046200.838712417,0.05718994140625,-0.2079620361328125,-0.9056396484375,1046200.807581417,0.07403668016195297,0.07660742849111557,0.07468968629837036,1046200.826794417,17.64192199707031,47.03079223632812,-110.8019256591797,1046200.797619417,0.09320114337837061,0.06394323044352625,0.2002615258273414,0.09947186708450317,0.02314571477472782,0.07779087126255035,0.01000922918319702,-0.008853405714035034,-0.009323418140411377,2,0.09832232166849302,0.0364258125416034,0.04951866417466622,0.9932542186206544,0.06262260675430298,-0.198925644159317,-0.9780117869377136,6.114178657531738,12.46223449707031,-39.57009124755859,-1,2,1046200.738577417,4,2,1617671998.271984,1617670944.349944,44,1.9282,0,0,30.29663,0,0,1617671919.538014,1046197.771647,0,-1.162628,98.15225,0,0,0,0,0,1,1617671998.320898,1,0.16,1617671998.367391,-22.8936,-29.52128,0
1617671998.402452,3,0,0,0,0,0,0,0,0,0,1617671998.383057,6.491972923278809,12.01466751098633,-39.35733795166016,304.4215698242188,311.4511413574219,15.4406623840332,1046200.87233375,0.0780029296875,-0.1982574462890625,-0.9894866943359375,1046200.841202417,-0.001539839780889452,0.417182594537735,0.07962745428085327,1046200.826794417,17.64192199707031,47.03079223632812,-110.8019256591797,1046200.85739175,0.09782917724764531,0.07870824989425251,0.2016448930172778,0.05221471562981606,0.3996790051460266,0.05119793117046356,-0.001487642526626587,0.003625780344009399,-0.004572153091430664,2,0.09853953438080816,0.04401491084759342,0.0525644162942504,0.9927686943464729,0.07703390717506409,-0.200281172990799,-0.9767053127288818,6.610217094421387,12.01373672485352,-39.37356567382812,-1,2,1046200.738577417,4,2,1617671998.271984,1617670944.349944,44,1.9282,0,0,30.29663,0,0,1617671919.538014,1046197.771647,0,-1.162628,98.15225,0,0,0,0,0,1,1617671998.320898,1,0.16,1617671998.400036,-22.8936,-30.55077,0
1617671998.432396,4,0,0,0,0,0,0,0,0,0,1617671998.422945,6.95461368560791,12.06900024414062,-39.55678558349609,304.2234191894531,311.2529907226562,15.44077110290527,1046200.90595475,0.098052978515625,-0.2038726806640625,-1.018173217773438,1046200.87482375,0.1402806788682938,0.3867133557796478,0.05107330530881882,1046200.88677775,18.42924499511719,46.74716186523438,-110.6992340087891,1046200.85739175,0.09782917724764531,0.07870824989425251,0.2016448930172778,0.05221471562981606,0.3996790051460266,0.05119793117046356,-0.001487642526626587,0.003625780344009399,-0.004572153091430664,2,0.09853953438080816,0.04401491084759342,0.0525644162942504,0.9927686943464729,0.07703390717506409,-0.200281172990799,-0.9767053127288818,6.610217094421387,12.01373672485352,-39.37356567382812,-1,2,1046200.738577417,4,2,1617671998.271984,1617670944.349944,44,1.9282,0,0,30.29663,0,0,1617671919.538014,1046197.771647,0,-1.162628,98.15225,0,0,0,0,0,1,1617671998.320898,1,0.16,1617671998.400036,-22.8936,-30.55077,0
1617671998.472319,5,0,0,0,0,0,0,0,0,0,1617671998.462837,7.528210639953613,11.75878524780273,-39.52191162109375,304.0217895507812,311.0513610839844,15.44116115570068,1046200.93957775,0.095703125,-0.190185546875,-1.003250122070312,1046200.90844675,0.1851240545511246,0.1870010495185852,0.07752355188131332,1046200.88677775,18.42924499511719,46.74716186523438,-110.6992340087891,1046200.91716375,0.100912246492029,0.09503166917303987,0.2111377963717117,0.1540202796459198,0.1497628837823868,0.08562009036540985,0.001410990953445435,0.004280701279640198,-0.03586560487747192,2,0.1027378312499036,0.05248187205298033,0.05509596101373632,0.9917937913703604,0.09278151392936707,-0.2095725685358047,-0.9733811616897583,7.379082679748535,11.82401657104492,-39.54819488525391,-1,2,1046200.738577417,4,2,1617671998.271984,1617670944.349944,44,1.9282,0,0,30.29663,0,0,1617671919.538014,1046197.771647,0,-1.162628,98.15225,0,0,0,0,0,1,1617671998.320898,1,0.16,1617671998.470706,-22.8936,-31.00249,0
1617671998.502291,6,0,0,0,0,0,0,0,0,0,1617671998.482775,7.682467460632324,11.71488952636719,-39.70163726806641,303.9674682617188,310.9970397949219,15.44140338897705,1046200.97319875,0.0982513427734375,-0.1811676025390625,-1.00030517578125,1046200.94206775,0.1083797365427017,0.08728936314582825,0.04267049953341484,1046200.94675775,19.16197204589844,46.39215087890625,-110.9108276367188,1046200.91716375,0.100912246492029,0.09503166917303987,0.2111377963717117,0.1540202796459198,0.1497628837823868,0.08562009036540985,0.001410990953445435,0.004280701279640198,-0.03586560487747192,2,0.1027378312499036,0.05248187205298033,0.05509596101373632,0.9917937913703604,0.09278151392936707,-0.2095725685358047,-0.9733811616897583,7.379082679748535,11.82401657104492,-39.54819488525391,-1,2,1046200.738577417,4,2,1617671998.271984,1617670944.349944,44,1.9282,0,0,30.29663,0,0,1617671919.538014,1046197.771647,0,-1.162628,98.15225,0,0,0,0,0,1,1617671998.320898,1,0.16,1617671998.500806,-22.8936,-31.31643,0
1617671998.542491,7,0,0,0,0,0,0,0,0,0,1617671998.522568,7.832268714904785,11.48734664916992,-39.73381042480469,304.0655517578125,311.0951232910156,15.44188499450684,1046201.00682175,0.096771240234375,-0.2125396728515625,-0.979888916015625,1046200.97568875,0.07781437039375305,0.02476287074387074,-0.06190677732229233,1046201.00674275,19.34274291992188,46.08827209472656,-110.7847290039062,1046200.97693575,0.101623101298966,0.09941135146809425,0.2170704817905975,0.06374368816614151,0.01960219256579876,-0.05931248515844345,-0.0003609880805015564,0.02176615595817566,-0.01725667715072632,2,0.1055402041634523,0.05482396098345932,0.05580353759309331,0.9913333080689281,0.09691860526800156,-0.215369775891304,-0.9717112183570862,7.818366050720215,11.4446907043457,-39.69671630859375,-1,2,1046200.738577417,4,2,1617671998.271984,1617670944.349944,44,1.9282,0,0,30.29663,0,0,1617671919.538014,1046197.771647,0,-1.162628,98.15225,0,0,0,0,0,1,1617671998.320898,1,0.16,1617671998.533471,-22.8936,-30.12053,0
1617671998.577292,8,0,0,0,0,0,0,0,0,0,1617671998.562385,7.918459892272949,11.36508178710938,-39.64835357666016,304.1623229980469,311.19189453125,15.44209098815918,1046201.04044275,0.1069793701171875,-0.220794677734375,-0.995361328125,1046201.00931175,0.1116010993719101,0.05716288834810257,-0.04470142349600792,1046201.00674275,19.34274291992188,46.08827209472656,-110.7847290039062,1046200.97693575,0.101623101298966,0.09941135146809425,0.2170704817905975,0.06374368816614151,0.01960219256579876,-0.05931248515844345,-0.0003609880805015564,0.02176615595817566,-0.01725667715072632,2,0.1055402041634523,0.05482396098345932,0.05580353759309331,0.9913333080689281,0.09691860526800156,-0.215369775891304,-0.9717112183570862,7.818366050720215,11.4446907043457,-39.69671630859375,-1,2,1046200.738577417,4,2,1617671998.271984,1617670944.349944,44,1.9282,0,0,30.29663,0,0,1617671919.538014,1046197.771647,0,-1.162628,98.15225,0,0,0,0,0,1,1617671998.320898,1,0.16,1617671998.577224,-22.8936,-30.43212,0
1617671998.601755,9,0,0,0,0,0,0,0,0,0,1617671998.582431,7.926175117492676,11.20808410644531,-39.76304626464844,304.2043762207031,311.2339477539062,15.44219398498535,1046201.07406375,0.1002960205078125,-0.231109619140625,-0.9462432861328125,1046201.04293275,0.1319958567619324,-0.0355800986289978,-0.02719247154891491,1046201.06672275,19.34001159667969,45.81770324707031,-110.9173126220703,1046201.03670775,0.09840639493250981,0.101837584125662,0.220718201688501,0.1232995018362999,-0.008480659686028957,-0.02104104124009609,0.008516401052474976,-0.001025095582008362,-0.02493548393249512,2,0.1073713065275046,0.05593573594517973,0.05441952623392182,0.9911515111336178,0.09919538348913193,-0.2189304530620575,-0.9706851840019226,7.871508598327637,11.27962112426758,-39.67383575439453,-1,2,1046200.738577417,4,2,1617671998.271984,1617670944.349944,44,1.9282,0,0,30.29663,0,0,1617671919.538014,1046197.771647,0,-1.162628,98.15225,0,0,0,0,0,1,1617671998.320898,1,0.16,1617671998.600825,-22.8936,-30.66724,0
1617671998.645185,10,0,0,0,0,0,0,0,0,0,1617671998.642011,7.809464454650879,11.04916381835938,-39.94460296630859,304.2307739257812,311.2603454589844,15.44237995147705,1046201.10768675,0.0952301025390625,-0.2348480224609375,-0.945220947265625,1046201.07655575,0.03651060536503792,-0.03522270172834396,-0.01704369857907295,1046201.06672275,19.34001159667969,45.81770324707031,-110.9173126220703,1046201.09647975,0.09700314345729445,0.09973371930863685,0.2229115201217392,-0.02228475362062454,0.06422122567892075,0.01144873071461916,-0.002897180616855621,-0.01451049745082855,0.03024137020111084,2,0.1085545696092261,0.05486443216608058,0.05365947026887585,0.9911238523089568,0.09710493683815002,-0.2210700362920761,-0.9704115986824036,7.810385704040527,11.07720565795898,-39.82817840576172,-1,2,1046200.738577417,4,2,1617671998.271984,1617670944.349944,44,1.9282,0,0,30.29663,0,0,1617671919.538014,1046197.771647,0,-1.162628,98.15225,0,0,0,0,0,1,1617671998.320898,1,0.16,1617671998.645149,-22.8936,-31.23956,0
1617671998.671907,11,0,0,0,0,0,0,0,0,0,1617671998.662324,7.892342567443848,11.03069686889648,-39.84182739257812,304.2062072753906,311.2357788085938,15.44243144989014,1046201.14130775,0.1066436767578125,-0.218353271484375,-0.9725189208984375,1046201.14379775,0.0006631271098740399,0.01359064318239689,-0.0009483516332693398,1046201.12670675,19.34129333496094,45.72323608398438,-110.9310150146484,1046201.09647975,0.09700314345729445,0.09973371930863685,0.2229115201217392,-0.02228475362062454,0.06422122567892075,0.01144873071461916,-0.002897180616855621,-0.01451049745082855,0.03024137020111084,2,0.1085545696092261,0.05486443216608058,0.05365947026887585,0.9911238523089568,0.09710493683815002,-0.2210700362920761,-0.9704115986824036,7.810385704040527,11.07720565795898,-39.82817840576172,-1,2,1046200.738577417,4,2,1617671998.271984,1617670944.349944,44,1.9282,0,0,30.29663,0,0,1617671919.538014,1046197.771647,0,-1.162628,98.15225,0,0,0,0,0,1,1617671998.320898,1,0.16,1617671998.667245,-22.8936,-30.27077,0
1617671998.707002,12,0,0,0,0,0,0,0,0,0,1617671998.701776,7.880162239074707,11.19965744018555,-39.75820159912109,304.1915283203125,311.2210998535156,15.44253158569336,1046201.17492875,0.1155548095703125,-0.227508544921875,-0.990509033203125,1046201.14379775,0.0006631271098740399,0.01359064318239689,-0.0009483516332693398,1046201.12670675,19.34129333496094,45.72323608398438,-110.9310150146484,1046201.15625175,0.09774297248198387,0.1023653141930254,0.2224690089554071,-0.02184220030903816,-0.0001807864755392075,0.01268915738910437,0.01256007701158524,-0.01155464351177216,-0.01487272977828979,2,0.1082436869970913,0.05619915561828066,0.05415882220758256,0.9910559257914113,0.09966830909252167,-0.2206384539604187,-0.9702498912811279,7.886157035827637,11.13463592529297,-39.63803100585938,-1,2,1046200.738577417,4,2,1617671998.271984,1617670944.349944,44,1.9282,0,0,30.29663,0,0,1617671919.538014,1046198.720456,0,-1.159973,98.15224,0,0,0,0,0,1,1617671998.320898,1,0.16,1617671998.706964,-22.8936,-30.91571,0
1617671998.741707,13,0,0,0,0,0,0,0,0,0,1617671998.722154,7.824797630310059,11.19315338134766,-39.79477691650391,304.1627807617188,311.1923522949219,15.44258308410645,1046201.20855175,0.086578369140625,-0.2289886474609375,-0.9477386474609375,1046201.17742075,-0.0175773948431015,-0.08230499178171158,0.0254339873790741,1046201.18668775,19.26593017578125,45.86845397949219,-110.9408569335938,1046201.15625175,0.09774297248198387,0.1023653141930254,0.2224690089554071,-0.02184220030903816,-0.0001807864755392075,0.01268915738910437,0.01256007701158524,-0.01155464351177216,-0.01487272977828979,2,0.1082436869970913,0.05619915561828066,0.05415882220758256,0.9910559257914113,0.09966830909252167,-0.2206384539604187,-0.9702498912811279,7.886157035827637,11.13463592529297,-39.63803100585938,-1,2,1046200.738577417,4,2,1617671998.271984,1617670944.349944,44,1.9282,0,0,30.29663,0,0,1617671919.538014,1046198.720456,0,-1.159973,98.15224,0,0,0,0,0,1,1617671998.320898,1,0.16,1617671998.734053,-22.8936,-30.66397,0
1617671998.771333,14,0,0,0,0,0,0,0,0,0,1617671998.761482,7.722275733947754,11.2598762512207,-39.88801574707031,304.0013732910156,311.0309448242188,15.44268608093262,1046201.24217275,0.0943603515625,-0.203704833984375,-1.002197265625,1046201.24466275,0.09246282279491425,-0.01215599849820137,0.04351738467812538,1046201.18668775,19.26593017578125,45.86845397949219,-110.9408569335938,1046201.21602375,0.1003340528638116,0.1002139698318572,0.2214718946205852,-0.01618061028420925,0.05635969340801239,0.07923062145709991,-0.01253496110439301,-0.001815631985664368,-0.008720099925994873,2,0.1077359761353558,0.05525127958353573,0.05530431817065062,0.9911013170504768,0.09760270267724991,-0.2196658104658127,-0.9706805348396301,7.786286354064941,11.20247268676758,-39.84788513183594,-1,2,1046200.738577417,4,2,1617671998.271984,1617670944.349944,44,1.9282,0,0,30.29663,0,0,1617671919.538014,1046198.720456,0,-1.159973,98.15224,0,0,0,0,0,1,1617671998.320898,1,0.16,1617671998.766751,-22.8936,-31.10449,0
1617671998.815338,15,0,0,0,0,0,0,0,0,0,1617671998.801439,7.846497535705566,11.24541091918945,-39.59659576416016,303.9492492675781,310.9788208007812,15.44279003143311,1046201.27579575,0.092681884765625,-0.203765869140625,-0.9708404541015625,1046201.24466275,0.09246282279491425,-0.01215599849820137,0.04351738467812538,1046201.24667275,19.26274108886719,45.94772338867188,-110.9779968261719,1046201.21602375,0.1003340528638116,0.1002139698318572,0.2214718946205852,-0.01618061028420925,0.05635969340801239,0.07923062145709991,-0.01253496110439301,-0.001815631985664368,-0.008720099925994873,2,0.1077359761353558,0.05525127958353573,0.05530431817065062,0.9911013170504768,0.09760270267724991,-0.2196658104658127,-0.9706805348396301,7.786286354064941,11.20247268676758,-39.84788513183594,-1,2,1046200.738577417,4,2,1617671998.271984,1617670944.349944,44,1.9282,0,0,30.29663,0,0,1617671919.538014,1046198.720456,0,-1.159973,98.15224,0,0,0,0,0,1,1617671998.320898,1,0.16,1617671998.800728,-22.8936,-31.46117,0
1617671998.840834,16,0,0,0,0,0,0,0,0,0,1617671998.821315,7.839858055114746,11.19547653198242,-39.72154998779297,303.9783325195312,311.0079040527344,15.44284057617188,1046201.30941675,0.08831787109375,-0.2268524169921875,-0.9475555419921875,1046201.27828575,0.06811194121837616,-0.01934280432760715,-0.02101154252886772,1046201.30665575,19.25845336914062,45.72782897949219,-110.9761810302734,1046201.27579575,0.1021400665642833,0.09990157996777685,0.225784930664505,0.06179670244455338,-0.02862635254859924,-0.01694440469145775,-0.007467135787010193,0.01423083245754242,0.01037812232971191,2,0.1098330200185184,0.05529101024043877,0.05627704274592443,0.9908141011667098,0.0972040668129921,-0.2238714396953583,-0.9697592258453369,7.838704109191895,11.21867370605469,-39.64647674560547,-1,2,1046200.738577417,4,2,1617671998.271984,1617670944.349944,44,1.9282,0,0,30.29663,0,0,1617671919.538014,1046198.720456,0,-1.159973,98.15224,0,0,0,0,0,1,1617671998.320898,1,0.16,1617671998.833836,-22.8936,-31.81536,0
1617671998.876729,17,0,0,0,0,0,0,0,0,0,1617671998.861413,7.828753471374512,11.01961517333984,-39.71940612792969,304.0187683105469,311.04833984375,15.44294548034668,1046201.34303775,0.100494384765625,-0.21966552734375,-0.9903106689453125,1046201.31190675,-0.02182300761342049,0.04968420043587685,-0.01751907169818878,1046201.30665575,19.25845336914062,45.72782897949219,-110.9761810302734,1046201.27579575,0.1021400665642833,0.09990157996777685,0.225784930664505,0.06179670244455338,-0.02862635254859924,-0.01694440469145775,-0.007467135787010193,0.01423083245754242,0.01037812232971191,2,0.1098330200185184,0.05529101024043877,0.05627704274592443,0.9908141011667098,0.0972040668129921,-0.2238714396953583,-0.9697592258453369,7.838704109191895,11.21867370605469,-39.64647674560547,-1,2,1046200.738577417,4,2,1617671998.271984,1617670944.349944,44,1.9282,0,0,30.29663,0,0,1617671919.538014,1046198.720456,0,-1.159973,98.15224,0,0,0,0,0,1,1617671998.320898,1,0.16,1617671998.876655,-22.8936,-32.1627,0
1617671998.910696,18,0,0,0,0,0,0,0,0,0,1617671998.901047,7.817164421081543,11.03115844726562,-39.89404296875,304.0593566894531,311.0889282226562,15.4430513381958,1046201.37666175,0.09942626953125,-0.2194976806640625,-0.9809722900390625,1046201.34553075,-0.0435863584280014,-0.05528642609715462,-0.01168408617377281,1046201.36663775,19.25428771972656,45.73269653320312,-111.0544738769531,1046201.33556775,0.1010612537112304,0.09984404898859309,0.2241934958994286,-0.0529942661523819,-0.04602915421128273,-0.007589309010654688,0.002715617418289185,0.003112241625785828,-0.01929229497909546,2,0.1090755180425905,0.05516782388035692,0.05570452690856442,0.9909369354024238,0.09718366712331772,-0.2223201096057892,-0.9701181054115295,7.759490013122559,11.04051208496094,-39.78752136230469,-1,2,1046200.738577417,4,2,1617671998.271984,1617670944.349944,44,1.9282,0,0,30.29663,0,0,1617671919.538014,1046198.720456,0,-1.159973,98.15224,0,0,0,0,0,1,1617671998.320898,1,0.16,1617671998.900833,-22.8936,-32.40623,0
1617671998.94425,19,0,0,0,0,0,0,0,0,0,1617671998.940889,7.689963340759277,11.10263061523438,-39.7958984375,304.1114807128906,311.1410522460938,15.44315719604492,1046201.41028275,0.0963592529296875,-0.220947265625,-0.971923828125,1046201.37915175,0.002951048780232668,-0.04936408624053001,-0.02113351412117481,1046201.36663775,19.25428771972656,45.73269653320312,-111.0544738769531,1046201.39534075,0.1002775026438285,0.09658331266529618,0.2223122833423314,0.03893296048045158,-0.05668520927429199,-0.0122060040012002,0.004359148442745209,0.001354023814201355,-0.006389439105987549,2,0.1082544185447855,0.05346762893095332,0.05509843018980887,0.9911541123752083,0.0940600261092186,-0.220485582947731,-0.9708443880081177,7.74915599822998,11.09365844726562,-39.80860137939453,-1,2,1046200.738577417,4,2,1617671998.271984,1617670944.349944,44,1.9282,0,0,30.29663,0,0,1617671919.538014,1046198.720456,0,-1.159973,98.15224,0,0,0,0,0,1,1617671998.320898,1,0.16,1617671998.944214,-22.8936,-28.72418,0
1617671998.970371,20,0,0,0,0,0,0,0,0,0,1617671998.961222,7.692816734313965,11.08972930908203,-39.81527709960938,304.1354064941406,311.1649780273438,15.44320964813232,1046201.44390375,0.09619140625,-0.2284698486328125,-0.95416259765625,1046201.41277275,0.07470885664224625,-0.0283549427986145,-0.01401089038699865,1046201.42662575,19.13076782226562,45.79469299316406,-110.968505859375,1046201.39534075,0.1002775026438285,0.09658331266529618,0.2223122833423314,0.03893296048045158,-0.05668520927429199,-0.0122060040012002,0.004359148442745209,0.001354023814201355,-0.006389439105987549,2,0.1082544185447855,0.05346762893095332,0.05509843018980887,0.9911541123752083,0.0940600261092186,-0.220485582947731,-0.9708443880081177,7.74915599822998,11.09365844726562,-39.80860137939453,-1,2,1046200.738577417,4,2,1617671998.271984,1617670944.349944,44,1.9282,0,0,30.29663,0,0,1617671919.538014,1046198.720456,0,-1.159973,98.15224,0,0,0,0,0,1,1617671998.320898,1,0.16,1617671998.967248,-22.8936,-28.92395,0
1617671999.010128,21,0,0,0,0,0,0,0,0,0,1617671999.000748,7.76752758026123,10.97465896606445,-39.92396545410156,304.1394653320312,311.1690368652344,15.44331741333008,1046201.47752675,0.105438232421875,-0.231231689453125,-0.9766693115234375,1046201.44639575,0.03432495146989822,0.05239929258823395,-0.009580988436937332,1046201.42662575,19.13076782226562,45.79469299316406,-110.968505859375,1046201.45511275,0.09916594203029923,0.09695996976628671,0.2246031884046954,0.006112925708293915,0.05522149056196213,-0.002289121970534325,0.006819739937782288,-0.00921417772769928,0.007931828498840332,2,0.1094097298756426,0.05364429489792883,0.0546167259855308,0.991044323518158,0.09437654912471771,-0.2227195352315903,-0.9703035950660706,7.77131175994873,11.00059509277344,-39.84484100341797,-1,2,1046200.738577417,4,2,1617671998.271984,1617670944.349944,44,1.9282,0,0,30.29663,0,0,1617671919.538014,1046198.720456,0,-1.159973,98.15224,0,0,0,0,0,1,1617671998.320898,1,0.16,1617671999.006634,-22.8936,-29.60606,0
1617671999.040434,22,0,0,0,0,0,0,0,0,0,1617671999.020907,7.713059425354004,11.07464218139648,-39.91984558105469,304.1200561523438,311.1496276855469,15.4433708190918,1046201.51114775,0.10394287109375,-0.2145843505859375,-0.986602783203125,1046201.48001675,-0.04601915553212166,0.0260731466114521,0.01258290372788906,1046201.48660875,19.1451416015625,45.77845764160156,-111.0727081298828,1046201.45511275,0.09916594203029923,0.09695996976628671,0.2246031884046954,0.006112925708293915,0.05522149056196213,-0.002289121970534325,0.006819739937782288,-0.00921417772769928,0.007931828498840332,2,0.1094097298756426,0.05364429489792883,0.0546167259855308,0.991044323518158,0.09437654912471771,-0.2227195352315903,-0.9703035950660706,7.77131175994873,11.00059509277344,-39.84484100341797,-1,2,1046200.738577417,4,2,1617671998.271984,1617670944.349944,44,1.9282,0,0,30.29663,0,0,1617671919.538014,1046198.720456,0,-1.159973,98.15224,0,0,0,0,0,1,1617671998.320898,1,0.16,1617671999.033144,-22.8936,-30.16862,0
1617671999.080344,23,0,0,0,0,0,0,0,0,0,1617671999.060608,7.713654518127441,11.06416702270508,-39.82115173339844,304.1446228027344,311.1741943359375,15.44347763061523,1046201.54477075,0.090301513671875,-0.2302398681640625,-0.9646453857421875,1046201.51363775,-0.05592451989650726,-0.08006767183542252,-0.01272032223641872,1046201.54659675,19.02458190917969,45.90394592285156,-110.9480895996094,1046201.51488475,0.09969288132223127,0.09613393287180583,0.221754918326887,-0.06622626632452011,-0.08481082320213318,-0.01011633779853582,0.001258887350559235,0.001741111278533936,0.001923084259033203,2,0.108005984938044,0.05320097730944003,0.05477262409523109,0.9912135532826971,0.09363551437854767,-0.2199418991804123,-0.9710087180137634,7.692023277282715,11.06974411010742,-39.81521606445312,-1,2,1046200.738577417,4,2,1617671998.271984,1617670944.349944,44,1.9282,0,0,30.29663,0,0,1617671919.538014,1046198.720456,0,-1.159973,98.15224,0,0,0,0,0,1,1617671998.320898,1,0.16,1617671999.066304,-22.8936,-30.63514,0
1617671999.115573,24,0,0,0,0,0,0,0,0,0,1617671999.100084,7.63184642791748,11.22885894775391,-39.63665008544922,304.1266174316406,311.1561889648438,15.44358730316162,1046201.57839175,0.085662841796875,-0.2305755615234375,-0.966156005859375,1046201.54726075,-0.0204783771187067,-0.008558867499232292,0.00202240445651114,1046201.54659675,19.02458190917969,45.90394592285156,-110.9480895996094,1046201.51488475,0.09969288132223127,0.09613393287180583,0.221754918326887,-0.06622626632452011,-0.08481082320213318,-0.01011633779853582,0.001258887350559235,0.001741111278533936,0.001923084259033203,2,0.108005984938044,0.05320097730944003,0.05477262409523109,0.9912135532826971,0.09363551437854767,-0.2199418991804123,-0.9710087180137634,7.692023277282715,11.06974411010742,-39.81521606445312,-1,2,1046200.738577417,4,2,1617671998.271984,1617670944.349944,44,1.9282,0,0,30.29663,0,0,1617671919.538014,1046198.720456,0,-1.159973,98.15224,0,0,0,0,0,1,1617671998.320898,1,0.16,1617671999.100587,-22.8936,-31.02801,0
1617671999.139897,25,0,0,0,0,0,0,0,0,0,1617671999.12033,7.66231632232666,11.24855422973633,-39.85823822021484,304.0773010253906,311.1068725585938,15.44364166259766,1046201.61201275,0.0967864990234375,-0.207611083984375,-0.99755859375,1046201.58088175,0.05643478035926819,0.1022768393158913,0.03555373474955559,1046201.60658075,19.13285827636719,45.80288696289062,-110.9974670410156,1046201.57465675,0.1000196075130574,0.09626816737294029,0.2204365188276818,0.03567672893404961,0.09546688199043274,0.03944645822048187,-0.006757520139217377,-0.007861226797103882,-0.004027307033538818,2,0.1073398279357128,0.05325592664305305,0.05491394377699621,0.9912751774238536,0.09379365295171738,-0.218655601143837,-0.9712839126586914,7.658234596252441,11.27054214477539,-39.76275634765625,-1,2,1046200.738577417,4,2,1617671998.271984,1617670944.349944,44,1.9282,0,0,30.29663,0,0,1617671919.538014,1046198.720456,0,-1.159973,98.15224,0,0,0,0,0,1,1617671998.320898,1,0.16,1617671999.133677,-23.45088,-31.25741,0
1617671999.179488,26,0,0,0,0,0,0,0,0,0,1617671999.168472,7.786557197570801,10.98644256591797,-39.62381744384766,304.0657653808594,311.0953369140625,15.44375324249268,1046201.64563575,0.1011810302734375,-0.2115478515625,-1.001953125,1046201.61450475,0.002944657113403082,0.01101430132985115,-0.006767358630895615,1046201.60658075,19.13285827636719,45.80288696289062,-110.9974670410156,1046201.63442875,0.1005617205093066,0.09767640809390671,0.2215754193143522,-0.03636002168059349,-0.06373102962970734,-0.02241904102265835,0.005799874663352966,0.008798673748970032,-0.03309535980224609,2,0.1078512489766284,0.05400832335077772,0.05528263280214024,0.9911584554231194,0.09513700753450394,-0.2197667956352234,-0.9709024429321289,7.802279472351074,10.96144104003906,-39.60071563720703,-1,2,1046200.738577417,4,2,1617671998.271984,1617670944.349944,44,1.9282,0,0,30.29663,0,0,1617671919.538014,1046198.720456,0,-1.159973,98.15224,0,0,0,0,0,1,1617671998.320898,1,0.16,1617671999.171658,-23.22669,-30.15829,0
1617671999.209718,27,0,0,0,0,0,0,0,0,0,1617671999.200093,7.744833946228027,10.85137939453125,-38.89268493652344,304.1265869140625,311.1561584472656,15.44387054443359,1046201.67925675,0.0925140380859375,-0.2318115234375,-0.9694671630859375,1046201.64812575,-0.0237311627715826,-0.08862067759037018,-0.02770060300827026,1046201.66656875,19.18031311035156,45.51850891113281,-109.9110565185547,1046201.63442875,0.1005617205093066,0.09767640809390671,0.2215754193143522,-0.03636002168059349,-0.06373102962970734,-0.02241904102265835,0.005799874663352966,0.008798673748970032,-0.03309535980224609,2,0.1078512489766284,0.05400832335077772,0.05528263280214024,0.9911584554231194,0.09513700753450394,-0.2197667956352234,-0.9709024429321289,7.802279472351074,10.96144104003906,-39.60071563720703,-1,2,1046200.738577417,4,2,1617671998.271984,1617670944.349944,44,1.9282,0,0,30.29663,0,0,1617671919.538014,1046198.720456,0,-1.159973,98.15224,0,0,0,0,0,1,1617671998.320898,1,0.16,1617671999.200786,-23.22669,-30.51044,0
1617671999.245826,28,0,0,0,0,0,0,0,0,0,1617671999.239638,7.596026420593262,11.09186172485352,-39.67902374267578,304.113037109375,311.1426086425781,15.44399356842041,1046201.71287775,0.094696044921875,-0.213714599609375,-0.9674835205078125,1046201.68174675,0.01614674553275108,0.002318015322089195,0.01142256427556276,1046201.66656875,19.18031311035156,45.51850891113281,-109.9110565185547,1046201.69420075,0.1001323909174407,0.09487662443174019,0.2202099864249269,0.0416993573307991,-0.03027838841080666,0.01441348437219858,0.008032456040382385,-0.001231104135513306,-0.01198136806488037,2,0.1072627030768282,0.05256722980146059,0.05489043854926634,0.9913215907766886,0.09244666248559952,-0.2184345424175262,-0.9714627861976624,7.561125755310059,11.06851577758789,-39.57559967041016,-1,2,1046200.738577417,4,2,1617671998.271984,1617670944.349944,44,1.9282,0,0,30.29663,0,0,1617671919.538014,1046198.720456,0,-1.159973,98.15224,0,0,0,0,0,1,1617671998.320898,1,0.16,1617671999.24577,-23.22669,-31.21601,0
1617671999.279598,29,0,0,0,0,0,0,0,0,0,1617671999.259882,7.601559638977051,11.13367462158203,-39.65284729003906,304.12451171875,311.1540832519531,15.44405364990234,1046201.74650075,0.0887298583984375,-0.2224273681640625,-0.9538116455078125,1046201.71536975,0.07191014289855957,-0.007044327445328236,-0.0004822984628845006,1046201.72655475,19.024169921875,45.84335327148438,-110.7879028320312,1046201.69420075,0.1001323909174407,0.09487662443174019,0.2202099864249269,0.0416993573307991,-0.03027838841080666,0.01441348437219858,0.008032456040382385,-0.001231104135513306,-0.01198136806488037,2,0.1072627030768282,0.05256722980146059,0.05489043854926634,0.9913215907766886,0.09244666248559952,-0.2184345424175262,-0.9714627861976624,7.561125755310059,11.06851577758789,-39.57559967041016,-1,2,1046200.738577417,4,2,1617671998.271984,1617670944.349944,44,1.9282,0,0,30.29663,0,0,1617671919.538014,1046198.720456,0,-1.159973,98.15224,0,0,0,0,0,1,1617671998.320898,1,0.16,1617671999.26724,-23.22669,-31.22909,0
1617671999.309031,30,0,0,0,0,0,0,0,0,0,1617671999.299621,7.714823722839355,11.02325057983398,-39.76969909667969,304.15625,311.1858215332031,15.44416427612305,1046201.78012175,0.094573974609375,-0.23223876953125,-0.9728851318359375,1046201.74899075,0.0156929437071085,0.05392421782016754,-0.02435487508773804,1046201.72655475,19.024169921875,45.84335327148438,-110.7879028320312,1046201.75397275,0.09934496247178275,0.09566985700315522,0.2223499927659449,-0.008367412723600864,0.05146437883377075,-0.01789733953773975,0.001096427440643311,-0.008908882737159729,0.01009094715118408,2,0.1083229758208133,0.05296527024668624,0.05458760834476167,0.9912018842278405,0.09317236393690109,-0.2205223739147186,-0.9709216356277466,7.678833961486816,11.01579666137695,-39.74397277832031,-1,2,1046200.738577417,4,2,1617671998.271984,1617670944.349944,44,1.9282,0,0,30.29663,0,0,1617671919.538014,1046198.720456,0,-1.159973,98.15224,0,0,0,0,0,1,1617671998.320898,1,0.16,1617671999.306525,-23.22669,-28.99516,0
1617671999.356807,31,0,0,0,0,0,0,0,0,0,1617671999.339198,7.715695381164551,10.90113830566406,-39.75627136230469,304.1213684082031,311.1509399414062,15.44427680969238,1046201.81374475,0.094512939453125,-0.2035369873046875,-0.983154296875,1046201.78261175,-0.02746890857815742,0.04739707708358765,0.01821202784776688,1046201.78654175,19.1104736328125,45.67697143554688,-110.8073272705078,1046201.75397275,0.09934496247178275,0.09566985700315522,0.2223499927659449,-0.008367412723600864,0.05146437883377075,-0.01789733953773975,0.001096427440643311,-0.008908882737159729,0.01009094715118408,2,0.1083229758208133,0.05296527024668624,0.05458760834476167,0.9912018842278405,0.09317236393690109,-0.2205223739147186,-0.9709216356277466,7.678833961486816,11.01579666137695,-39.74397277832031,-1,2,1046200.738577417,4,2,1617671998.271984,1617670944.349944,44,1.9282,0,0,30.29663,0,0,1617671919.538014,1046198.720456,0,-1.159973,98.15224,1617671999.322264,587422867,1685438189,0,0,1,1617671998.320898,1,0.16,1617671999.334041,-23.22669,-29.19983,0
1617671999.378748,32,0,0,0,0,0,0,0,0,0,1617671999.3594,7.735529899597168,10.9393196105957,-39.99549102783203,304.1286010742188,311.1581726074219,15.44433307647705,1046201.84736575,0.0947265625,-0.2127685546875,-0.988067626953125,1046201.81623475,-0.0006745787104591727,-0.01063480135053396,-0.01039644796401262,1046201.84653275,19.13761901855469,45.71324157714844,-111.0634765625,1046201.81374475,0.0997957649946923,0.09698201748835297,0.2205910779777497,-0.01750876568257809,-0.02420878224074841,-0.006578223779797554,-0.003815978765487671,0.01246170699596405,-0.001137435436248779,2,0.107402865129917,0.05360113714911631,0.05484460427628113,0.991253584563922,0.09448370337486267,-0.2188064157962799,-0.9711830615997314,7.74242115020752,10.91781616210938,-39.93150329589844,-1,2,1046200.738577417,4,2,1617671998.271984,1617670944.349944,44,1.9282,0,0,30.29663,0,0,1617671919.538014,1046198.720456,0,-1.159973,98.15224,1617671999.322264,587422867,1685438189,0,0,1,1617671998.320898,1,0.16,1617671999.37112,-23.22669,-30.33111,0
1617671999.415056,33,0,0,0,0,0,0,0,0,0,1617671999.399008,7.736048698425293,11.01896286010742,-39.82844543457031,304.1465148925781,311.1760864257812,15.4444465637207,1046201.880987167,0.0966033935546875,-0.2067718505859375,-0.9716796875,1046201.84985575,0.01592623628675938,-0.01033013593405485,-0.009121859446167946,1046201.84653275,19.13761901855469,45.71324157714844,-111.0634765625,1046201.81374475,0.0997957649946923,0.09698201748835297,0.2205910779777497,-0.01750876568257809,-0.02420878224074841,-0.006578223779797554,-0.003815978765487671,0.01246170699596405,-0.001137435436248779,2,0.107402865129917,0.05360113714911631,0.05484460427628113,0.991253584563922,0.09448370337486267,-0.2188064157962799,-0.9711830615997314,7.74242115020752,10.91781616210938,-39.93150329589844,-1,2,1046200.738577417,4,2,1617671998.271984,1617670944.349944,44,1.9282,0,0,30.29663,0,0,1617671919.538014,1046198.720456,0,-1.159973,98.15224,1617671999.322264,587422867,1685438189,0,0,1,1617671998.320898,1,0.16,1617671999.400524,-23.22669,-29.80821,0
1617671999.448835,34,0,0,0,0,0,0,0,0,0,1617671999.439218,7.627490043640137,10.97173309326172,-39.79327392578125,304.2182922363281,311.2478637695312,15.44456100463867,1046201.914610167,0.098388671875,-0.2198486328125,-0.9729461669921875,1046201.883479167,0.0103937853127718,0.005795571021735668,-0.03038080967962742,1046201.906528167,19.08094787597656,45.65505981445312,-110.94580078125,1046201.873517167,0.09928486794179939,0.09679010305944918,0.2208574460722762,0.005852840840816498,0.0002218284644186497,-0.02176991105079651,0.002326972782611847,0.01217228174209595,-0.001085817813873291,2,0.1075538836872305,0.05348443262404334,0.0545867498204794,0.9912577407464557,0.09429167956113815,-0.219066321849823,-0.9711431264877319,7.639369010925293,11.08054351806641,-39.81222534179688,-1,2,1046200.738577417,4,2,1617671998.271984,1617670944.349944,44,1.9282,0,0,30.29663,0,0,1617671919.538014,1046198.720456,0,-1.159973,98.15224,1617671999.322264,587422867,1685438189,0,0,1,1617671998.320898,1,0.16,1617671999.433826,-23.22669,-30.34641,0
1617671999.485649,35,0,0,0,0,0,0,0,0,0,1617671999.478744,7.533461570739746,11.04952239990234,-39.79806518554688,304.2817077636719,311.311279296875,15.44467449188232,1046201.948231167,0.09710693359375,-0.2398529052734375,-0.95635986328125,1046201.917100167,0.01398479100316763,-0.02826599217951298,-0.04126914218068123,1046201.906528167,19.08094787597656,45.65505981445312,-110.94580078125,1046201.933289167,0.09724927717743651,0.09625727689848702,0.2200651070826918,-0.0115131763741374,0.02122032456099987,-0.02968522161245346,0.001958027482032776,-0.01779094338417053,0.02077370882034302,2,0.1072295912652559,0.053093815773325,0.05353235024711456,0.9913713391130314,0.09379087388515472,-0.218293160200119,-0.971365749835968,7.570736885070801,10.95207977294922,-39.77865600585938,-1,2,1046200.738577417,4,2,1617671998.271984,1617670944.349944,44,1.9282,0,0,30.29663,0,0,1617671919.538014,1046198.720456,0,-1.159973,98.15224,1617671999.322264,587422867,1685438189,0,0,1,1617671998.320898,1,0.16,1617671999.475387,-23.22669,-30.2475,0
1617671999.508673,36,0,0,0,0,0,0,0,0,0,1617671999.498896,7.540247917175293,11.04061126708984,-39.80750274658203,304.2610473632812,311.2906188964844,15.44473171234131,1046201.981852167,0.101531982421875,-0.2244873046875,-0.9914703369140625,1046201.950721167,-0.002586195711046457,0.07051145285367966,0.003298324998468161,1046201.966520167,18.98744201660156,45.71878051757812,-110.9817504882812,1046201.933289167,0.09724927717743651,0.09625727689848702,0.2200651070826918,-0.0115131763741374,0.02122032456099987,-0.02968522161245346,0.001958027482032776,-0.01779094338417053,0.02077370882034302,2,0.1072295912652559,0.053093815773325,0.05353235024711456,0.9913713391130314,0.09379087388515472,-0.218293160200119,-0.971365749835968,7.570736885070801,10.95207977294922,-39.77865600585938,-1,2,1046200.738577417,4,2,1617671998.271984,1617670944.349944,44,1.9282,0,0,30.29663,0,0,1617671919.538014,1046198.720456,0,-1.159973,98.15224,1617671999.322264,587422867,1685438189,0,0,1,1617671998.320898,1,0.16,1617671999.500541,-23.22669,-30.32929,0
1617671999.548244,37,0,0,0,0,0,0,0,0,0,1617671999.538717,7.62856388092041,11.04882431030273,-39.95436859130859,304.2263793945312,311.2559509277344,15.44484710693359,1046202.015475167,0.091583251953125,-0.208038330078125,-0.9738616943359375,1046201.984344167,-0.01784823834896088,-0.01087342016398907,0.02342410013079643,1046201.966520167,18.98744201660156,45.71878051757812,-110.9817504882812,1046201.993061167,0.0979649845505013,0.09769725963921794,0.2187911812651224,-0.03378359600901604,-0.02535809576511383,0.01075993850827217,-0.001130878925323486,0.008492544293403625,-0.008245944976806641,2,0.106539968275288,0.05381837180539088,0.05393681929237309,0.9913847386818571,0.09521657228469849,-0.217049777507782,-0.9715056419372559,7.656661033630371,11.01215362548828,-39.91169738769531,-1,2,1046202.013548167,2,0,1617671999.546955,1617670944.349944,44,1.9282,0,0,30.29663,0,0,1617671919.538014,1046198.720456,0,-1.159973,98.15224,1617671999.322264,587422867,1685438189,0,0,1,1617671998.320898,1,0.16,1617671999.547737,-23.22669,-31.01245,0
1617671999.578412,38,0,0,0,0,0,0,0,0,0,1617671999.558907,7.611420631408691,11.10600662231445,-39.89604949951172,304.2348327636719,311.264404296875,15.44490337371826,1046202.049096167,0.091461181640625,-0.21826171875,-0.9695587158203125,1046202.017965167,-0.004445881117135286,-0.01915212348103523,-0.009355418384075165,1046202.026511167,19.03245544433594,45.8167724609375,-111.0220794677734,1046201.993061167,0.0979649845505013,0.09769725963921794,0.2187911812651224,-0.03378359600901604,-0.02535809576511383,0.01075993850827217,-0.001130878925323486,0.008492544293403625,-0.008245944976806641,2,0.106539968275288,0.05381837180539088,0.05393681929237309,0.9913847386818571,0.09521657228469849,-0.217049777507782,-0.9715056419372559,7.656661033630371,11.01215362548828,-39.91169738769531,-1,2,1046202.013548167,2,0,1617671999.546955,1617670944.349944,44,1.9282,0,0,30.29663,0,0,1617671919.538014,1046198.720456,0,-1.159973,98.15224,1617671999.322264,587422867,1685438189,0,0,1,1617671998.320898,1,0.16,1617671999.567317,-23.22669,-31.1702,0
1617671999.617923,39,0,0,0,0,0,0,0,0,0,1617671999.5986,7.66875171661377,11.21889495849609,-39.85342407226562,304.2250671386719,311.254638671875,15.44501972198486,1046202.082719167,0.0919342041015625,-0.205718994140625,-0.988250732421875,1046202.051586167,0.03275421634316444,0.04066460579633713,0.006046174559742212,1046202.086492167,19.13885498046875,45.78298950195312,-110.9786529541016,1046202.052833167,0.09788578920609067,0.09751713612029558,0.2193164451942035,0.01950953900814056,0.0358164943754673,0.008053857833147049,-0.004408523440361023,0.002367690205574036,-0.006526589393615723,2,0.1068074581481744,0.05373622654458203,0.0538992735018729,0.9913624445636506,0.09503046423196793,-0.2175624966621399,-0.9714091420173645,7.66818904876709,11.18014144897461,-39.80581665039062,-1,2,1046202.013548167,2,0,1617671999.546955,1617670944.349944,44,1.9282,0,0,30.29663,0,0,1617671919.538014,1046198.720456,0,-1.159973,98.15224,1617671999.322264,587422867,1685438189,0,0,1,1617671998.320898,1,0.16,1617671999.606517,-23.22669,-31.24098,0
1617671999.655282,40,0,0,0,0,0,0,0,0,0,1617671999.638137,7.744675636291504,11.06743621826172,-39.76189422607422,304.2492980957031,311.2788696289062,15.44513893127441,1046202.116340167,0.0972747802734375,-0.2093048095703125,-1.005447387695312,1046202.085209167,0.01059245690703392,0.005269863177090883,-0.0109085738658905,1046202.086492167,19.13885498046875,45.78298950195312,-110.9786529541016,1046202.052833167,0.09788578920609067,0.09751713612029558,0.2193164451942035,0.01950953900814056,0.0358164943754673,0.008053857833147049,-0.004408523440361023,0.002367690205574036,-0.006526589393615723,2,0.1068074581481744,0.05373622654458203,0.0538992735018729,0.9913624445636506,0.09503046423196793,-0.2175624966621399,-0.9714091420173645,7.66818904876709,11.18014144897461,-39.80581665039062,-1,2,1046202.013548167,2,0,1617671999.546955,1617670944.349944,44,1.9282,0,0,30.29663,0,0,1617671919.538014,1046199.669397,0,-1.159973,98.15224,1617671999.322264,587422867,1685438189,0,0,1,1617671998.320898,1,0.16,1617671999.633851,-23.22669,-31.81027,0
1617671999.677537,41,0,0,0,0,0,0,0,0,0,1617671999.658219,7.663907051086426,11.10637283325195,-39.91269683837891,304.28369140625,311.3132629394531,15.44520282745361,1046202.149961167,0.0881195068359375,-0.2144927978515625,-0.9624176025390625,1046202.118830167,0.02491360530257225,-0.09278666228055954,-0.02024748176336288,1046202.146483167,18.98585510253906,45.97956848144531,-111.1259460449219,1046202.112605167,0.09748763236051007,0.09737945104178214,0.2193234132625312,0.01145768351852894,-0.08450083434581757,-0.01594400405883789,0.001600012183189392,0.00888998806476593,-0.0299677848815918,2,0.1068253091377061,0.05364686545939368,0.05369471141358823,0.9913764336466682,0.09489656984806061,-0.2175692915916443,-0.9714207053184509,7.724841117858887,11.06913375854492,-39.82406616210938,-1,2,1046202.013548167,2,0,1617671999.546955,1617670944.349944,44,1.9282,0,0,30.29663,0,0,1617671919.538014,1046199.669397,0,-1.159973,98.15224,1617671999.322264,587422867,1685438189,0,0,1,1617671998.320898,1,0.16,1617671999.667052,-23.22669,-31.82922,0
1617671999.727323,42,0,0,0,0,0,0,0,0,0,1617671999.717823,7.494921684265137,11.21578598022461,-39.92495727539062,304.4203186035156,311.4498901367188,15.44537830352783,1046202.183584167,0.0900115966796875,-0.223480224609375,-0.952545166015625,1046202.186074167,0.04482286423444748,0.05493355542421341,-0.03272758796811104,1046202.146483167,18.98585510253906,45.97956848144531,-111.1259460449219,1046202.172377167,0.09542078418300697,0.09447658212329614,0.2196106803941331,0.02656339854001999,0.008814999833703041,-0.03580639511346817,-0.002226628363132477,-0.005066081881523132,0.01778775453567505,2,0.107099507845151,0.0521034453928704,0.05252096804469958,0.9914920620722636,0.09207036346197128,-0.2178496718406677,-0.9716298580169678,7.513602256774902,11.22808456420898,-39.92618560791016,-1,2,1046202.013548167,2,0,1617671999.546955,1617670944.349944,44,1.9282,0,0,30.29663,0,0,1617671919.538014,1046199.669397,0,-1.159973,98.15224,1617671999.322264,587422867,1685438189,0,0,1,1617671998.320898,1,0.16,1617671999.7006,-23.22669,-29.701,0
1617671999.747717,43,0,0,0,0,0,0,0,0,0,1617671999.738014,7.497891426086426,11.24452590942383,-39.82173156738281,304.4430847167969,311.47265625,15.44543647766113,1046202.217205167,0.10125732421875,-0.2254180908203125,-0.9916839599609375,1046202.186074167,0.04482286423444748,0.05493355542421341,-0.03272758796811104,1046202.206467167,18.93780517578125,45.94224548339844,-110.9564819335938,1046202.172377167,0.09542078418300697,0.09447658212329614,0.2196106803941331,0.02656339854001999,0.008814999833703041,-0.03580639511346817,-0.002226628363132477,-0.005066081881523132,0.01778775453567505,2,0.107099507845151,0.0521034453928704,0.05252096804469958,0.9914920620722636,0.09207036346197128,-0.2178496718406677,-0.9716298580169678,7.513602256774902,11.22808456420898,-39.92618560791016,-1,2,1046202.013548167,2,0,1617671999.546955,1617670944.349944,44,1.9282,0,0,30.29663,0,0,1617671919.538014,1046199.669397,0,-1.159973,98.15224,1617671999.322264,587422867,1685438189,0,0,1,1617671998.320898,1,0.16,1617671999.733607,-23.22669,-30.26539,0
1617671999.787935,44,0,0,0,0,0,0,0,0,0,1617671999.777571,7.568545341491699,11.14297866821289,-39.88269805908203,304.4826965332031,311.5122680664062,15.44555568695068,1046202.250826167,0.09942626953125,-0.2216033935546875,-0.9703216552734375,1046202.219695167,0.02872751839458942,-0.008620119653642178,-0.01639921404421329,1046202.206467167,18.93780517578125,45.94224548339844,-110.9564819335938,1046202.232149167,0.09389619378991829,0.09606578666731674,0.2204565829206936,0.008200326934456825,-0.03754562512040138,-0.01462123729288578,0.007874287664890289,-0.00245530903339386,-0.003783822059631348,2,0.1075175832052834,0.05282712733904389,0.05186824795444683,0.9914428458646607,0.09359665960073471,-0.2186751812696457,-0.9712985157966614,7.53081226348877,11.21999740600586,-39.79423522949219,-1,2,1046202.013548167,2,0,1617671999.546955,1617670944.349944,44,1.9282,0,0,30.29663,0,0,1617671919.538014,1046199.669397,0,-1.159973,98.15224,1617671999.322264,587422867,1685438189,0,0,1,1617671998.320898,1,0.16,1617671999.776544,-23.22669,-30.94277,0
1617671999.817306,45,0,0,0,0,0,0,0,0,0,1617671999.797842,7.573697090148926,11.04817962646484,-39.85761260986328,304.5035095214844,311.5330810546875,15.44561386108398,1046202.284449167,0.097564697265625,-0.2295989990234375,-0.96527099609375,1046202.253318167,-0.006295712664723396,-0.01944906450808048,-0.01959367468953133,1046202.266452167,19.01512145996094,45.71824645996094,-111.0088500976562,1046202.232149167,0.09389619378991829,0.09606578666731674,0.2204565829206936,0.008200326934456825,-0.03754562512040138,-0.01462123729288578,0.007874287664890289,-0.00245530903339386,-0.003783822059631348,2,0.1075175832052834,0.05282712733904389,0.05186824795444683,0.9914428458646607,0.09359665960073471,-0.2186751812696457,-0.9712985157966614,7.53081226348877,11.21999740600586,-39.79423522949219,-1,2,1046202.013548167,2,0,1617671999.546955,1617670944.349944,44,1.9282,0,0,30.29663,0,0,1617671919.538014,1046199.669397,0,-1.159973,98.15224,1617671999.322264,587422867,1685438189,0,0,1,1617671998.320898,1,0.16,1617671999.800484,-23.22669,-31.45163,0
1617671999.847867,46,0,0,0,0,0,0,0,0,0,1617671999.837567,7.432915687561035,11.19482803344727,-39.75234985351562,304.4883422851562,311.5179138183594,15.44573402404785,1046202.318070167,0.1010589599609375,-0.218536376953125,-0.9894866943359375,1046202.286939167,0.0004463458026293665,0.01772413589060307,0.006071740761399269,1046202.266452167,19.01512145996094,45.71824645996094,-111.0088500976562,1046202.291921167,0.09336227655517913,0.09524904999757991,0.2200233214609465,-0.008237273432314396,0.02322198450565338,0.01126529090106487,0.005301676690578461,-0.0135592520236969,-0.001156806945800781,2,0.1073378455073802,0.05238462992731865,0.05155052063690252,0.9915024448151822,0.09281233698129654,-0.2182523757219315,-0.9714688658714294,7.467648506164551,11.11034393310547,-39.6651611328125,-1,2,1046202.013548167,2,0,1617671999.546955,1617670944.349944,44,1.9282,0,0,30.29663,0,0,1617671919.538014,1046199.669397,0,-1.159973,98.15224,1617671999.322264,587422867,1685438189,0,0,1,1617671998.320898,1,0.16,1617671999.847826,-23.22669,-28.73858,0
1617671999.895491,47,0,0,0,0,0,0,0,0,0,1617671999.877304,7.515707969665527,11.12492752075195,-39.68572998046875,304.4827575683594,311.5123291015625,15.4458532333374,1046202.351693167,0.0939788818359375,-0.21551513671875,-0.9615936279296875,1046202.320560167,0.03614761680364609,-0.01714622974395752,0.01233070250600576,1046202.326441167,18.88967895507812,45.97630310058594,-111.0314788818359,1046202.291921167,0.09336227655517913,0.09524904999757991,0.2200233214609465,-0.008237273432314396,0.02322198450565338,0.01126529090106487,0.005301676690578461,-0.0135592520236969,-0.001156806945800781,2,0.1073378455073802,0.05238462992731865,0.05155052063690252,0.9915024448151822,0.09281233698129654,-0.2182523757219315,-0.9714688658714294,7.467648506164551,11.11034393310547,-39.6651611328125,-1,2,1046202.013548167,2,0,1617671999.546955,1617670944.349944,44,1.9282,0,0,30.29663,0,0,1617671919.538014,1046199.669397,0,-1.159973,98.15224,1617671999.322264,587422867,1685438189,0,0,1,1617671998.320898,1,0.16,1617671999.867409,-23.22669,-29.22807,0
1617671999.91672,48,0,0,0,0,0,0,0,0,0,1617671999.897246,7.447941780090332,11.12483215332031,-39.9052734375,304.4942321777344,311.5238037109375,15.44591426849365,1046202.385314167,0.099700927734375,-0.2279815673828125,-0.974609375,1046202.354183167,0.01805916242301464,0.02613919228315353,-0.01591931097209454,1046202.386431167,18.96415710449219,45.71148681640625,-110.9933624267578,1046202.351693167,0.09358087553606761,0.0956687165597975,0.2211243911176572,0.005681357346475124,0.02164618670940399,-0.01166746206581593,0.005100101232528687,5.789101123809814e-05,0.0005632638931274414,2,0.1078673891638429,0.05262708632481269,0.05170472303795381,0.9914240028288103,0.09319700300693512,-0.2193267792463303,-0.9711900353431702,7.453471183776855,11.09652328491211,-39.81022644042969,-1,2,1046202.013548167,2,0,1617671999.546955,1617670944.349944,44,1.9282,0,0,30.29663,0,0,1617671919.538014,1046199.669397,0,-1.159973,98.15224,1617671999.322264,587422867,1685438189,0,0,1,1617671998.320898,1,0.16,1617671999.906835,-23.22669,-29.68979,0
1617671999.955671,49,0,0,0,0,0,0,0,0,0,1617671999.936952,7.524491310119629,11.03131484985352,-39.69142913818359,304.4780578613281,311.5076293945312,15.44603443145752,1046202.418935167,0.095550537109375,-0.222259521484375,-0.969482421875,1046202.387804167,-0.005751096177846193,0.003717240178957582,0.006272010505199432,1046202.386431167,18.96415710449219,45.71148681640625,-110.9933624267578,1046202.351693167,0.09358087553606761,0.0956687165597975,0.2211243911176572,0.005681357346475124,0.02164618670940399,-0.01166746206581593,0.005100101232528687,5.789101123809814e-05,0.0005632638931274414,2,0.1078673891638429,0.05262708632481269,0.05170472303795381,0.9914240028288103,0.09319700300693512,-0.2193267792463303,-0.9711900353431702,7.453471183776855,11.09652328491211,-39.81022644042969,-1,2,1046202.013548167,2,0,1617671999.546955,1617670944.349944,44,1.9282,0,0,30.29663,0,0,1617671919.538014,1046199.669397,0,-1.159973,98.15224,1617671999.322264,587422867,1685438189,0,0,1,1617671998.320898,1,0.16,1617671999.933958,-23.22669,-29.44022,0
1617671999.986788,50,0,0,0,0,0,0,0,0,0,1617671999.977343,7.483563423156738,11.12356948852539,-39.82567596435547,304.4269409179688,311.4565124511719,15.4461555480957,1046202.452558167,0.09466552734375,-0.2205657958984375,-0.9716339111328125,1046202.421427167,0.02878104709088802,0.005893575493246317,0.0215766653418541,1046202.446413167,18.923828125,45.80232238769531,-110.9948272705078,1046202.411465167,0.09380221936190893,0.09590551275667203,0.2208109699406662,0.007467963732779026,-0.005414668004959822,0.02340160682797432,0.001842319965362549,-0.002689346671104431,0.002669453620910645,2,0.1076999840305186,0.05274993838923312,0.05182056661456036,0.9914296332485069,0.09343355894088745,-0.2190209776163101,-0.9712362885475159,7.464911460876465,11.0697021484375,-39.71811676025391,-1,2,1046202.013548167,2,0,1617671999.546955,1617670944.349944,44,1.9282,0,0,30.29663,0,0,1617671919.538014,1046199.669397,0,-1.159973,98.15224,1617671999.322264,587422867,1685438189,0,0,1,1617671998.320898,1,0.16,1617671999.968453,-23.22669,-27.48495,0
1617672000.026963,51,0,0,0,0,0,0,0,0,0,1617672000.016731,7.536946296691895,11.05752182006836,-39.78142547607422,304.3904724121094,311.4200439453125,15.44627666473389,1046202.486179167,0.08856201171875,-0.2269439697265625,-0.9652862548828125,1046202.488669167,-0.008375109173357487,0.04677363112568855,0.01335468795150518,1046202.446413167,18.923828125,45.80232238769531,-110.9948272705078,1046202.471237167,0.09479510369758032,0.09680657576767288,0.2219507078543528,-0.007465086877346039,0.03053677827119827,0.01325527857989073,-0.006149709224700928,-0.006048232316970825,0.009568452835083008,2,0.1082154300584616,0.05327381262492914,0.05238564641532911,0.9913158000856349,0.09428447484970093,-0.220132902264595,-0.9709026217460632,7.508608818054199,11.08646392822266,-39.806884765625,-1,2,1046202.013548167,2,0,1617671999.546955,1617670944.349944,44,1.9282,0,0,30.29663,0,0,1617671919.538014,1046199.669397,0,-1.159973,98.15224,1617671999.322264,587422867,1685438189,0,0,1,1617671998.320898,1,0.16,1617672000.000665,-23.12837,-26.39215,0
1617672000.046239,52,0,0,0,0,0,0,0,0,0,1617672000.036561,7.551207542419434,11.08335113525391,-39.66307830810547,304.3677978515625,311.3973693847656,15.44633769989014,1046202.519800167,0.092498779296875,-0.222198486328125,-0.982025146484375,1046202.488669167,-0.008375109173357487,0.04677363112568855,0.01335468795150518,1046202.506404167,18.99705505371094,45.78018188476562,-110.7940368652344,1046202.471237167,0.09479510369758032,0.09680657576767288,0.2219507078543528,-0.007465086877346039,0.03053677827119827,0.01325527857989073,-0.006149709224700928,-0.006048232316970825,0.009568452835083008,2,0.1082154300584616,0.05327381262492914,0.05238564641532911,0.9913158000856349,0.09428447484970093,-0.220132902264595,-0.9709026217460632,7.508608818054199,11.08646392822266,-39.806884765625,-1,2,1046202.013548167,2,0,1617671999.546955,1617670944.349944,44,1.9282,0,0,30.29663,0,0,1617671919.538014,1046199.669397,0,-1.159973,98.15224,1617671999.322264,587422867,1685438189,0,0,1,1617671998.320898,1,0.16,1617672000.033603,-23.12837,-26.77506,0
1617672000.088306,53,0,0,0,0,0,0,0,0,0,1617672000.076563,7.584710121154785,11.21564102172852,-39.81304168701172,304.35009765625,311.3796691894531,15.44645977020264,1046202.553423167,0.0934295654296875,-0.22064208984375,-0.983001708984375,1046202.522292167,-0.01527802273631096,0.01207743585109711,0.008700280450284481,1046202.506404167,18.99705505371094,45.78018188476562,-110.7940368652344,1046202.531009167,0.09570244551932044,0.09798773212714473,0.2209278186737874,-0.02235268242657185,-0.003988255746662617,0.001531070796772838,-0.002527154982089996,0.0005069524049758911,-0.01632100343704224,2,0.1076527739627591,0.05388680711885897,0.05287709265699292,0.9913178344329201,0.0954531729221344,-0.2191349864006042,-0.9710142016410828,7.582776069641113,11.24038696289062,-39.77911376953125,-1,2,1046202.013548167,2,0,1617671999.546955,1617670944.349944,44,1.9282,0,0,30.29663,0,0,1617671919.538014,1046199.669397,0,-1.159973,98.15224,1617671999.322264,587422867,1685438189,0,0,1,1617671998.320898,1,0.16,1617672000.076624,-23.12837,-28.13039,0
1617672000.116304,54,0,0,0,0,0,0,0,0,0,1617672000.096608,7.530901908874512,11.17553329467773,-39.69937133789062,304.3460998535156,311.3756713867188,15.44652080535889,1046202.587044167,0.092987060546875,-0.2227325439453125,-0.9652862548828125,1046202.555913167,0.01852947659790516,-0.01032614056020975,0.001797101111151278,1046202.566393167,18.96142578125,45.84193420410156,-110.8103485107422,1046202.531009167,0.09570244551932044,0.09798773212714473,0.2209278186737874,-0.02235268242657185,-0.003988255746662617,0.001531070796772838,-0.002527154982089996,0.0005069524049758911,-0.01632100343704224,2,0.1076527739627591,0.05388680711885897,0.05287709265699292,0.9913178344329201,0.0954531729221344,-0.2191349864006042,-0.9710142016410828,7.582776069641113,11.24038696289062,-39.77911376953125,-1,2,1046202.013548167,2,0,1617671999.546955,1617670944.349944,44,1.9282,0,0,30.29663,0,0,1617671919.538014,1046199.669397,0,-1.159973,98.15224,1617671999.322264,587422867,1685438189,0,0,1,1617671998.320898,1,0.16,1617672000.100714,-23.12837,-28.68559,0
1617672000.156214,55,0,0,0,0,0,0,0,0,0,1617672000.136459,7.562901496887207,11.02308654785156,-39.71421051025391,304.3198852539062,311.3494567871094,15.4466438293457,1046202.620667167,0.09716796875,-0.2130279541015625,-0.9728240966796875,1046202.623157167,0.01111443620175123,0.02626755647361279,-0.01192643400281668,1046202.626376167,19.01203918457031,45.88755798339844,-110.9801635742188,1046202.590781167,0.09609480568448121,0.09752324192704152,0.2215433466403724,0.0100876884534955,0.03571018949151039,0.01050168182700872,-0.0006286352872848511,0.003182664513587952,0.006446480751037598,2,0.1079597634877568,0.05369071362080725,0.0530598263864005,0.9912853818351285,0.09498898684978485,-0.2197355031967163,-0.9709240198135376,7.53188419342041,11.09197616577148,-39.61679840087891,-1,2,1046202.013548167,2,0,1617671999.546955,1617670944.349944,44,1.9282,0,0,30.29663,0,0,1617671919.538014,1046199.669397,0,-1.159973,98.15224,1617671999.322264,587422867,1685438189,0,0,1,1617671998.320898,1,0.16,1617672000.14764,-23.12837,-29.71174,0
1617672000.185851,56,0,0,0,0,0,0,0,0,0,1617672000.176142,7.665823936462402,11.18420791625977,-39.7557373046875,304.34326171875,311.3728332519531,15.44676685333252,1046202.654288167,0.10235595703125,-0.2235260009765625,-0.9656524658203125,1046202.623157167,0.01111443620175123,0.02626755647361279,-0.01192643400281668,1046202.626376167,19.01203918457031,45.88755798339844,-110.9801635742188,1046202.590781167,0.09609480568448121,0.09752324192704152,0.2215433466403724,0.0100876884534955,0.03571018949151039,0.01050168182700872,-0.0006286352872848511,0.003182664513587952,0.006446480751037598,2,0.1079597634877568,0.05369071362080725,0.0530598263864005,0.9912853818351285,0.09498898684978485,-0.2197355031967163,-0.9709240198135376,7.53188419342041,11.09197616577148,-39.61679840087891,-1,2,1046202.013548167,2,0,1617671999.546955,1617670944.349944,44,1.9282,0,0,30.29663,0,0,1617671919.538014,1046199.669397,0,-1.159973,98.15224,1617671999.322264,587422867,1685438189,0,0,1,1617671998.320898,1,0.16,1617672000.167315,-23.12837,-30.09226,0
1617672000.215575,57,0,0,0,0,0,0,0,0,0,1617672000.196266,7.583113670349121,11.24454116821289,-39.74984741210938,304.3678283691406,311.3973999023438,15.44682788848877,1046202.687909167,0.1001434326171875,-0.2341156005859375,-0.941070556640625,1046202.656778167,-0.0168751198798418,-0.03721661120653152,-0.02003895491361618,1046202.686371167,18.9891357421875,46.00112915039062,-110.8106842041016,1046202.650553167,0.09567820529834969,0.09814202328445504,0.2213526634237495,-0.02219611965119839,-0.0411965548992157,-0.01857776567339897,0.006655283272266388,-0.006570622324943542,0.01045751571655273,2,0.1078600296496988,0.05397091139430866,0.05288260495220803,0.9912904703361712,0.09559386223554611,-0.2195494771003723,-0.9709067344665527,7.636422157287598,11.24827194213867,-39.82536315917969,-1,2,1046202.013548167,2,0,1617671999.546955,1617670944.349944,44,1.9282,0,0,30.29663,0,0,1617671919.538014,1046199.669397,0,-1.159973,98.15224,1617671999.322264,587422867,1685438189,0,0,1,1617671998.320898,1,0.16,1617672000.205265,-23.12837,-30.5023,0
1617672000.267454,58,0,0,0,0,0,0,0,0,0,1617672000.255743,7.634167671203613,11.32579040527344,-39.83964538574219,304.327880859375,311.3574523925781,15.44701385498047,1046202.721532167,0.1002960205078125,-0.235443115234375,-0.949493408203125,1046202.724022167,-0.05089247599244118,0.08796633780002594,0.02948998101055622,1046202.686371167,18.9891357421875,46.00112915039062,-110.8106842041016,1046202.710325167,0.09570877885833229,0.0978734596600106,0.2180110175377027,-0.06568747758865356,0.05387909710407257,0.01836733892560005,0.004830718040466309,-0.01929239928722382,0.02362853288650513,2,0.1062090056988937,0.05376904401372075,0.05281087533492929,0.991483574480624,0.09540426731109619,-0.216288149356842,-0.9716570973396301,7.617203712463379,11.45232772827148,-39.77540588378906,-1,2,1046202.013548167,2,0,1617671999.546955,1617670944.349944,44,1.9282,0,0,30.29663,0,0,1617671919.538014,1046199.669397,0,-1.159973,98.15224,1617671999.322264,587422867,1685438189,0,0,1,1617671998.320898,1,0.16,1617672000.267387,-23.12837,-30.89435,0
1617672000.285656,59,0,0,0,0,0,0,0,0,0,1617672000.276062,7.659810066223145,11.396728515625,-39.69002532958984,304.2862854003906,311.3158569335938,15.44707775115967,1046202.755153167,0.1053314208984375,-0.216552734375,-0.9908294677734375,1046202.724022167,-0.05089247599244118,0.08796633780002594,0.02948998101055622,1046202.746362167,19.10845947265625,46.11943054199219,-110.8127136230469,1046202.710325167,0.09570877885833229,0.0978734596600106,0.2180110175377027,-0.06568747758865356,0.05387909710407257,0.01836733892560005,0.004830718040466309,-0.01929239928722382,0.02362853288650513,2,0.1062090056988937,0.05376904401372075,0.05281087533492929,0.991483574480624,0.09540426731109619,-0.216288149356842,-0.9716570973396301,7.617203712463379,11.45232772827148,-39.77540588378906,-1,2,1046202.013548167,2,0,1617671999.546955,1617670944.349944,44,1.9282,0,0,30.29663,0,0,1617671919.538014,1046199.669397,0,-1.159973,98.15224,1617671999.322264,587422867,1685438189,0,0,1,1617671998.320898,1,0.16,1617672000.267387,-23.12837,-30.89435,0
1617672000.325404,60,0,0,0,0,0,0,0,0,0,1617672000.31545,7.70833683013916,11.40973281860352,-39.74134063720703,304.3175659179688,311.3471374511719,15.44720077514648,1046202.788774167,0.1016845703125,-0.222412109375,-0.981231689453125,1046202.757643167,-0.0661260262131691,-0.01298930216580629,-0.002277535386383533,1046202.746362167,19.10845947265625,46.11943054199219,-110.8127136230469,1046202.770097167,0.09691532221005544,0.09978838318279762,0.2150616725197614,-0.1033779978752136,-0.06940513849258423,-0.02186948619782925,0.005287490785121918,-0.003801286220550537,-0.01501846313476562,2,0.104662482032337,0.05471937124468028,0.0534453123010698,0.9915620606851278,0.09732786566019058,-0.2134076803922653,-0.9721031188964844,7.693511009216309,11.35919189453125,-39.70140075683594,-1,2,1046202.013548167,2,0,1617671999.546955,1617670944.349944,44,1.9282,0,0,30.29663,0,0,1617671919.538014,1046199.669397,0,-1.159973,98.15224,1617671999.322264,587422867,1685438189,0,0,1,1617671998.320898,1,0.16,1617672000.300552,-23.12837,-28.32449,0
1617672000.355258,61,0,0,0,0,0,0,0,0,0,1617672000.335385,7.693514823913574,11.48418045043945,-39.59064483642578,304.37939453125,311.4089660644531,15.44726181030273,1046202.822397167,0.0904083251953125,-0.2320556640625,-0.9355316162109375,1046202.791266167,-0.1279321312904358,-0.1224721223115921,-0.0495784729719162,1046202.806353167,19.1219482421875,46.19331359863281,-110.7215881347656,1046202.770097167,0.09691532221005544,0.09978838318279762,0.2150616725197614,-0.1033779978752136,-0.06940513849258423,-0.02186948619782925,0.005287490785121918,-0.003801286220550537,-0.01501846313476562,2,0.104662482032337,0.05471937124468028,0.0534453123010698,0.9915620606851278,0.09732786566019058,-0.2134076803922653,-0.9721031188964844,7.693511009216309,11.35919189453125,-39.70140075683594,-1,2,1046202.013548167,2,0,1617671999.546955,1617670944.349944,44,1.9282,0,0,30.29663,0,0,1617671919.538014,1046199.669397,0,-1.159973,98.15224,1617671999.322264,587422867,1685438189,0,0,1,1617671998.320898,1,0.16,1617672000.333761,-23.12837,-28.39573,0
1617672000.38783,62,0,0,0,0,0,0,0,0,0,1617672000.375387,7.499064445495605,11.88795852661133,-39.56556701660156,304.4962768554688,311.5258483886719,15.44738674163818,1046202.856018167,0.0977630615234375,-0.22406005859375,-0.94775390625,1046202.824887167,-0.0976991280913353,-0.01603835448622704,-0.05583849921822548,1046202.806353167,19.1219482421875,46.19331359863281,-110.7215881347656,1046202.829869167,0.09471938555139613,0.09538921094297875,0.2084209143353642,-0.1077489703893661,0.01236132346093655,-0.05312303081154823,-0.002454660832881927,-0.02353835105895996,0.04252994060516357,2,0.1015422889365996,0.05228371661243304,0.05198545909656049,0.9920953234343672,0.09318341314792633,-0.2069152444601059,-0.9739111661911011,7.509596824645996,11.79699325561523,-39.55846405029297,-1,2,1046202.013548167,2,0,1617671999.546955,1617670944.349944,44,1.9282,0,0,30.29663,0,0,1617671919.538014,1046199.669397,0,-1.159973,98.15224,1617671999.322264,587422867,1685438189,0,0,1,1617671998.320898,1,0.16,1617672000.376187,-23.12837,-29.49581,0
1617672000.424839,63,0,0,0,0,0,0,0,0,0,1617672000.41529,7.521550178527832,12.20363998413086,-39.44552612304688,304.6294250488281,311.6589965820312,15.44751262664795,1046202.889640625,0.111175537109375,-0.2083587646484375,-0.9722442626953125,1046202.858508167,-0.08893413096666336,0.102184422314167,-0.06676465272903442,1046202.866343625,18.90974426269531,46.74705505371094,-110.6589813232422,1046202.829869167,0.09471938555139613,0.09538921094297875,0.2084209143353642,-0.1077489703893661,0.01236132346093655,-0.05312303081154823,-0.002454660832881927,-0.02353835105895996,0.04252994060516357,2,0.1015422889365996,0.05228371661243304,0.05198545909656049,0.9920953234343672,0.09318341314792633,-0.2069152444601059,-0.9739111661911011,7.509596824645996,11.79699325561523,-39.55846405029297,-1,2,1046202.013548167,2,0,1617671999.546955,1617670944.349944,44,1.9282,0,0,30.29663,0,0,1617671919.538014,1046199.669397,0,-1.159973,98.15224,1617671999.322264,587422867,1685438189,0,0,1,1617671998.320898,1,0.16,1617672000.400693,-23.12837,-29.91751,0
1617672000.454879,64,0,0,0,0,0,0,0,0,0,1617672000.435247,7.524666786193848,12.17273712158203,-39.44345092773438,304.7453002929688,311.7748718261719,15.44757461547852,1046202.923261625,0.1184234619140625,-0.2182159423828125,-0.9819183349609375,1046202.892130625,-0.1053083091974258,0.06920862942934036,-0.1132844835519791,1046202.926330625,18.930419921875,46.98745727539062,-110.6053161621094,1046202.889640625,0.09096945093373419,0.1010468705834761,0.2031764233447465,-0.1136434525251389,0.06826657801866531,-0.1073124185204506,0.01544248312711716,-0.004914224147796631,-0.00180739164352417,2,0.09889496516211187,0.05479490138992042,0.05029318214207978,0.992314469350172,0.09880006313323975,-0.2017814368009567,-0.9744346141815186,7.534199714660645,12.20631790161133,-39.41741943359375,-1,2,1046202.013548167,2,0,1617671999.546955,1617670944.349944,44,1.9282,0,0,30.29663,0,0,1617671919.538014,1046199.669397,0,-1.159973,98.15224,1617671999.322264,587422867,1685438189,0,0,1,1617671998.320898,1,0.16,1617672000.443285,-23.12837,-30.70168,0
1617672000.484629,65,0,0,0,0,0,0,0,0,0,1617672000.47483,7.553252220153809,12.24634552001953,-39.40522766113281,305.0308532714844,312.0604248046875,15.44769763946533,1046202.956882625,0.1233062744140625,-0.2193450927734375,-0.968841552734375,1046202.925751625,-0.177117258310318,-0.00461552431806922,-0.1430013626813889,1046202.926330625,18.930419921875,46.98745727539062,-110.6053161621094,1046202.889640625,0.09096945093373419,0.1010468705834761,0.2031764233447465,-0.1136434525251389,0.06826657801866531,-0.1073124185204506,0.01544248312711716,-0.004914224147796631,-0.00180739164352417,2,0.09889496516211187,0.05479490138992042,0.05029318214207978,0.992314469350172,0.09880006313323975,-0.2017814368009567,-0.9744346141815186,7.534199714660645,12.20631790161133,-39.41741943359375,-1,2,1046202.013548167,2,0,1617671999.546955,1617670944.349944,44,1.9282,0,0,30.29663,0,0,1617671919.538014,1046199.669397,0,-1.159973,98.15224,1617671999.322264,587422867,1685438189,0,0,1,1617671998.320898,1,0.16,1617672000.467247,-23.12837,-30.12561,0
1617672000.524532,66,0,0,0,0,0,0,0,0,0,1617672000.515188,7.493294715881348,12.57479858398438,-39.34471130371094,305.2215270996094,312.2510986328125,15.44782066345215,1046202.990505625,0.1280059814453125,-0.19622802734375,-0.9803924560546875,1046202.959374625,-0.2136033624410629,0.03462748602032661,-0.1024906858801842,1046202.986320625,18.93475341796875,47.25778198242188,-110.4693756103516,1046202.949412625,0.08415113105109333,0.1030064233331844,0.1940275942545804,-0.2289309501647949,0.0118176331743598,-0.1119878888130188,0.02306746691465378,-0.02549512684345245,0.006887912750244141,2,0.09449239309127812,0.05526193432426796,0.04679192154455902,0.9928886166546449,0.1008949279785156,-0.1928124725818634,-0.9760346412658691,7.527600288391113,12.40663146972656,-39.48654174804688,-1,2,1046202.013548167,2,0,1617671999.546955,1617670944.349944,44,1.9282,0,0,30.29663,0,0,1617671919.538014,1046199.669397,0,-1.159973,98.15224,1617671999.322264,587422867,1685438189,0,0,1,1617671998.320898,1,0.16,1617672000.506769,-23.12837,-31.18455,0
1617672000.554852,67,0,0,0,0,0,0,0,0,0,1617672000.534579,7.458943367004395,12.75785064697266,-39.17655181884766,305.3293151855469,312.35888671875,15.4478816986084,1046203.024126625,0.1182098388671875,-0.20294189453125,-0.975830078125,1046202.992995625,-0.1087216883897781,-0.0003137203748337924,-0.09986667335033417,1046202.986320625,18.93475341796875,47.25778198242188,-110.4693756103516,1046203.009184625,0.07911294229933349,0.1052131288249902,0.1849958957861947,-0.08601135015487671,-0.04520615562796593,-0.1277874410152435,0.01356358081102371,-0.01483385264873505,0.001381635665893555,2,0.09009563251389234,0.05596423483306324,0.0441756500442832,0.9933777112469837,0.1032271832227707,-0.1839424967765808,-0.9775015711784363,7.39034366607666,12.93454360961914,-39.17483520507812,-1,2,1046202.013548167,2,0,1617671999.546955,1617670944.349944,44,1.9282,0,0,30.29663,0,0,1617671919.538014,1046199.669397,0,-1.159973,98.15224,1617671999.322264,587422867,1685438189,0,0,1,1617671998.320898,1,0.16,1617672000.533611,-23.12837,-31.58717,0
1617672000.584209,68,0,0,0,0,0,0,0,0,0,1617672000.575168,7.385088920593262,12.97530364990234,-39.21602630615234,305.7026672363281,312.7322387695312,15.44800472259521,1046203.057747625,0.096099853515625,-0.2685546875,-0.9239501953125,1046203.026616625,-0.03297446295619011,-0.09255336970090866,-0.1718260794878006,1046203.046308625,18.82339477539062,47.64224243164062,-110.3402557373047,1046203.009184625,0.07911294229933349,0.1052131288249902,0.1849958957861947,-0.08601135015487671,-0.04520615562796593,-0.1277874410152435,0.01356358081102371,-0.01483385264873505,0.001381635665893555,2,0.09009563251389234,0.05596423483306324,0.0441756500442832,0.9933777112469837,0.1032271832227707,-0.1839424967765808,-0.9775015711784363,7.39034366607666,12.93454360961914,-39.17483520507812,-1,2,1046202.013548167,2,0,1617671999.546955,1617670944.349944,44,1.9282,0,0,30.29663,0,0,1617671919.538014,1046200.618327,0,-1.167908,98.15231,1617671999.322264,587422867,1685438189,0,0,1,1617671998.320898,1,0.16,1617672000.56687,-23.12837,-31.91399,0
1617672000.626484,69,0,0,0,0,0,0,0,0,0,1617672000.614443,7.151774406433105,12.99888610839844,-39.15338134765625,305.9066467285156,312.9362182617188,15.44812393188477,1046203.091370625,0.0795135498046875,-0.2945404052734375,-0.916107177734375,1046203.060239625,0.02729047648608685,0.01396455150097609,-0.1164501830935478,1046203.046308625,18.82339477539062,47.64224243164062,-110.3402557373047,1046203.068956625,0.06999059293414811,0.1047355554136065,0.1842463006323014,0.004239795729517937,0.05673032253980637,-0.07473022490739822,-0.01734077930450439,-0.1102514863014221,0.06669217348098755,2,0.08998689821218177,0.05530422890164132,0.03960434709137822,0.9936172416192871,0.1027747243642807,-0.1832056492567062,-0.9776875972747803,7.18846607208252,13.03306198120117,-39.13496398925781,-1,2,1046202.013548167,2,0,1617671999.546955,1617670944.349944,44,1.9282,0,0,30.29663,0,0,1617671919.538014,1046200.618327,0,-1.167908,98.15231,1617671999.322264,587422867,1685438189,0,0,1,1617671998.320898,1,0.16,1617672000.599978,-23.12837,-32.50597,0
1617672000.654066,70,0,0,0,0,0,0,0,0,0,1617672000.634235,7.236420631408691,13.07734680175781,-39.18433380126953,305.8092651367188,312.8388366699219,15.44818592071533,1046203.124991625,0.073028564453125,-0.2440032958984375,-0.976348876953125,1046203.093860625,-0.08994187414646149,0.2140925824642181,0.06483172625303268,1046203.106294625,18.70059204101562,47.77352905273438,-110.3217468261719,1046203.068956625,0.06999059293414811,0.1047355554136065,0.1842463006323014,0.004239795729517937,0.05673032253980637,-0.07473022490739822,-0.01734077930450439,-0.1102514863014221,0.06669217348098755,2,0.08998689821218177,0.05530422890164132,0.03960434709137822,0.9936172416192871,0.1027747243642807,-0.1832056492567062,-0.9776875972747803,7.18846607208252,13.03306198120117,-39.13496398925781,-1,2,1046202.013548167,2,0,1617671999.546955,1617670944.349944,44,1.9282,0,0,30.29663,0,0,1617671919.538014,1046200.618327,0,-1.167908,98.15231,1617671999.322264,587422867,1685438189,0,0,1,1617671998.320898,1,0.16,1617672000.633702,-23.12837,-32.7991,0
1617672000.693538,71,0,0,0,0,0,0,0,0,0,1617672000.674196,7.624085426330566,13.22914505004883,-39.07462310791016,305.5596618652344,312.5892333984375,15.44830703735352,1046203.158614625,0.055755615234375,-0.234222412109375,-0.9734039306640625,1046203.127481625,-0.2017818540334702,0.09469907730817795,0.0808304026722908,1046203.166288625,19.11836242675781,48.21540832519531,-110.1365356445312,1046203.128728625,0.07373579284878204,0.113486713028225,0.1803969808393777,-0.2140849232673645,0.08468504995107651,0.079116091132164,-0.03990292549133301,-0.05455824732780457,0.0005918145179748535,2,0.08778823004821079,0.05975880668642189,0.04175563529401538,0.9934679878644994,0.1114056184887886,-0.1794201284646988,-0.9774442315101624,7.573649406433105,13.13832855224609,-39.10023498535156,-1,2,1046202.013548167,2,0,1617671999.546955,1617670944.349944,44,1.9282,0,0,30.29663,0,0,1617671919.538014,1046200.618327,0,-1.167908,98.15231,1617671999.322264,587422867,1685438189,0,0,1,1617671998.320898,1,0.16,1617672000.676803,-22.44146,-33.25921,0
1617672000.723706,72,0,0,0,0,0,0,0,0,0,1617672000.714187,7.729435920715332,13.60459136962891,-38.77243804931641,305.3583679199219,312.387939453125,15.44842147827148,1046203.192235625,0.05340576171875,-0.2276611328125,-1.002090454101562,1046203.161104625,-0.2272097170352936,0.09985575824975967,0.0524435006082058,1046203.166288625,19.11836242675781,48.21540832519531,-110.1365356445312,1046203.128728625,0.07373579284878204,0.113486713028225,0.1803969808393777,-0.2140849232673645,0.08468504995107651,0.079116091132164,-0.03990292549133301,-0.05455824732780457,0.0005918145179748535,2,0.08778823004821079,0.05975880668642189,0.04175563529401538,0.9934679878644994,0.1114056184887886,-0.1794201284646988,-0.9774442315101624,7.573649406433105,13.13832855224609,-39.10023498535156,-1,2,1046202.013548167,2,0,1617671999.546955,1617670944.349944,44,1.9282,0,0,30.29663,0,0,1617671919.538014,1046200.618327,0,-1.167908,98.15231,1617671999.322264,587422867,1685438189,0,0,1,1617671998.320898,1,0.16,1617672000.700476,-22.44146,-32.71795,0
1617672000.753479,73,0,0,0,0,0,0,0,0,0,1617672000.733937,7.729777336120605,13.72772216796875,-38.77065277099609,305.2701416015625,312.2997131347656,15.4484691619873,1046203.225856625,0.0637664794921875,-0.20654296875,-1.0521240234375,1046203.194725625,-0.2131101489067078,0.1941337883472443,0.03820251300930977,1046203.226279625,19.34664916992188,48.60012817382812,-109.8491821289062,1046203.188500625,0.07923350201328906,0.1168071251481166,0.1737641394755985,-0.2330019772052765,0.1804470866918564,0.04329955577850342,-0.05893951654434204,-0.05135226249694824,-0.03077328205108643,2,0.08425376647134454,0.06153546867384854,0.0444507084873294,0.9935486384584384,0.114786684513092,-0.1728910207748413,-0.9782294034957886,7.757454872131348,13.68499374389648,-38.83193206787109,-1,2,1046202.013548167,2,0,1617671999.546955,1617670944.349944,44,1.9282,0,0,30.29663,0,0,1617671919.538014,1046200.618327,0,-1.167908,98.15231,1617671999.322264,587422867,1685438189,0,0,1,1617671998.320898,1,0.16,1617672000.744727,-21.98009,-32.27211,0
1617672000.80554,74,0,0,0,0,0,0,0,0,0,1617672000.793655,8.018704414367676,14.10524749755859,-38.69400787353516,305.3445739746094,312.3741455078125,15.44873332977295,1046203.259479625,0.0516204833984375,-0.2304229736328125,-1.0072021484375,1046203.261969625,0.08416814357042313,-0.03372733667492867,-0.09755611419677734,1046203.226279625,19.34664916992188,48.60012817382812,-109.8491821289062,1046203.248272625,0.08045979736045004,0.1189417567628447,0.1704076202469139,0.02707604691386223,-0.03107267990708351,-0.08554820716381073,-0.06428470462560654,-0.05618506669998169,-0.03324216604232788,2,0.08249979216186248,0.06258892019016053,0.04505624393082319,0.9936027212902871,0.1169427782297134,-0.1695840805768967,-0.9785528182983398,7.984330177307129,14.10568618774414,-38.59776306152344,-1,2,1046202.013548167,2,0,1617671999.546955,1617670944.349944,44,1.9282,0,0,30.29663,0,0,1617671919.538014,1046200.618327,0,-1.167908,98.15231,1617671999.322264,587422867,1685438189,0,0,1,1617671998.320898,1,0.16,1617672000.805521,-21.98009,-31.48494,0
1617672000.823508,75,0,0,0,0,0,0,0,0,0,1617672000.813562,8.003920555114746,14.0070915222168,-38.70082855224609,305.4275512695312,312.4571228027344,15.44885540008545,1046203.293100625,0.0447540283203125,-0.2799072265625,-0.96966552734375,1046203.261969625,0.08416814357042313,-0.03372733667492867,-0.09755611419677734,1046203.286272625,19.42135620117188,48.67388916015625,-109.8793182373047,1046203.248272625,0.08045979736045004,0.1189417567628447,0.1704076202469139,0.02707604691386223,-0.03107267990708351,-0.08554820716381073,-0.06428470462560654,-0.05618506669998169,-0.03324216604232788,2,0.08249979216186248,0.06258892019016053,0.04505624393082319,0.9936027212902871,0.1169427782297134,-0.1695840805768967,-0.9785528182983398,7.984330177307129,14.10568618774414,-38.59776306152344,-1,2,1046202.013548167,2,0,1617671999.546955,1617670944.349944,44,1.9282,0,0,30.29663,0,0,1617671919.538014,1046200.618327,0,-1.167908,98.15231,1617671999.322264,587422867,1685438189,0,0,1,1617671998.320898,1,0.16,1617672000.805521,-21.98009,-31.48494,0
1617672000.857271,76,0,0,0,0,0,0,0,0,0,1617672000.853546,8.075417518615723,13.85909271240234,-38.74300384521484,305.33447265625,312.3640441894531,15.44910430908203,1046203.326721625,0.067108154296875,-0.248809814453125,-1.012786865234375,1046203.295590625,0.07790251821279526,0.1041823253035545,-0.0003145193331874907,1046203.286272625,19.42135620117188,48.67388916015625,-109.8793182373047,1046203.308044625,0.07768968668963508,0.1176874309383286,0.1760876599009599,0.06165065616369247,0.1229453906416893,0.05181578919291496,-0.05422945320606232,-0.08730271458625793,-0.02169376611709595,2,0.08543668675547056,0.06194664386407213,0.04378494816194406,0.9934515676617837,0.1156003028154373,-0.1751790791749954,-0.9777263998985291,8.002062797546387,13.92139434814453,-38.67390441894531,-1,2,1046203.288753625,4,2,1617672000.82216,1617670944.349944,44,1.9282,0,0,30.29663,0,0,1617671919.538014,1046200.618327,0,-1.167908,98.15231,1617671999.322264,587422867,1685438189,0,0,1,1617671998.320898,1,0.16,1617672000.834001,-21.98009,-32.2005,0
1617672000.893393,77,0,0,0,0,0,0,0,0,0,1617672000.874032,8.138495445251465,13.8452033996582,-38.76219177246094,305.1879272460938,312.2174987792969,15.44924259185791,1046203.360344625,0.0856170654296875,-0.212615966796875,-1.049041748046875,1046203.329213625,0.07531712204217911,0.1323367357254028,0.1026819050312042,1046203.346264625,19.679443359375,48.47381591796875,-109.86962890625,1046203.308044625,0.07768968668963508,0.1176874309383286,0.1760876599009599,0.06165065616369247,0.1229453906416893,0.05181578919291496,-0.05422945320606232,-0.08730271458625793,-0.02169376611709595,2,0.08543668675547056,0.06194664386407213,0.04378494816194406,0.9934515676617837,0.1156003028154373,-0.1751790791749954,-0.9777263998985291,8.002062797546387,13.92139434814453,-38.67390441894531,-1,2,1046203.288753625,4,2,1617672000.82216,1617670944.349944,44,1.9282,0,0,30.29663,0,0,1617671919.538014,1046200.618327,0,-1.167908,98.15231,1617671999.322264,587422867,1685438189,0,0,1,1617671998.320898,1,0.16,1617672000.866365,-21.98009,-32.09476,0
1617672000.925188,78,0,0,0,0,0,0,0,0,0,1617672000.913212,8.349865913391113,13.80217361450195,-38.63943481445312,304.8282165527344,311.8577880859375,15.44953441619873,1046203.393965625,0.0936737060546875,-0.2127685546875,-1.053680419921875,1046203.396455625,0.1472011655569077,-0.07588145136833191,0.2260200828313828,1046203.346264625,19.679443359375,48.47381591796875,-109.86962890625,1046203.367816625,0.08476431885342013,0.1179748280534437,0.1854092851938937,0.1037936732172966,0.01656146347522736,0.1513543725013733,-0.02121689915657043,-0.02448306977748871,-0.07719355821609497,2,0.08984083122429089,0.06256275532380519,0.04756667321446723,0.9928504258979263,0.1156840547919273,-0.1843488216400146,-0.9760290384292603,8.328763008117676,13.72559356689453,-38.53543090820312,-1,2,1046203.288753625,4,2,1617672000.82216,1617670944.349944,44,1.9282,0,0,30.29663,0,0,1617671919.538014,1046200.618327,0,-1.167908,98.15231,1617671999.322264,587422867,1685438189,0,0,1,1617671998.320898,1,0.16,1617672000.900751,-21.98009,-32.51779,0
1617672000.96288,79,0,0,0,0,0,0,0,0,0,1617672000.953431,8.453675270080566,13.62799835205078,-38.75401306152344,304.3099365234375,311.3395080566406,15.44983005523682,1046203.427588625,0.075408935546875,-0.2173004150390625,-1.034622192382812,1046203.396455625,0.1472011655569077,-0.07588145136833191,0.2260200828313828,1046203.406255625,19.95268249511719,48.2921142578125,-109.8405303955078,1046203.367816625,0.08476431885342013,0.1179748280534437,0.1854092851938937,0.1037936732172966,0.01656146347522736,0.1513543725013733,-0.02121689915657043,-0.02448306977748871,-0.07719355821609497,2,0.08984083122429089,0.06256275532380519,0.04756667321446723,0.9928504258979263,0.1156840547919273,-0.1843488216400146,-0.9760290384292603,8.328763008117676,13.72559356689453,-38.53543090820312,-1,2,1046203.288753625,4,2,1617672000.82216,1617670944.349944,44,1.9282,0,0,30.29663,0,0,1617671919.538014,1046200.618327,0,-1.167908,98.15231,1617671999.322264,587422867,1685438189,0,0,1,1617671998.320898,1,0.16,1617672000.933979,-21.98009,-30.85589,0
1617672000.992789,80,0,0,0,0,0,0,0,0,0,1617672000.97335,8.492850303649902,13.38531494140625,-38.81733703613281,304.0151672363281,311.0447387695312,15.44998741149902,1046203.461209625,0.0691070556640625,-0.20074462890625,-1.007415771484375,1046203.463699625,0.007314638234674931,-0.2142449170351028,0.2819557785987854,1046203.406255625,19.95268249511719,48.2921142578125,-109.8405303955078,1046203.427588625,0.09790618310173674,0.1074247868220272,0.1975669966439019,0.1470615118741989,-0.2056482881307602,0.2823799550533295,-0.0314936637878418,-0.01733891665935516,-0.04648286104202271,2,0.095748447313309,0.05817985087861242,0.0539131434829821,0.9922402289431771,0.1051325798034668,-0.1962842345237732,-0.9748947024345398,8.470616340637207,13.52687835693359,-38.76805877685547,-1,2,1046203.288753625,4,2,1617672000.82216,1617670944.349944,44,1.9282,0,0,30.29663,0,0,1617671919.538014,1046200.618327,0,-1.167908,98.15231,1617671999.322264,587422867,1685438189,0,0,1,1617671998.320898,1,0.16,1617672000.976659,-21.98009,-31.892,0
1617672001.023011,81,0,0,0,0,0,0,0,0,0,1617672001.013375,8.458270072937012,13.09535980224609,-38.80585479736328,303.4219360351562,310.4515075683594,15.45034599304199,1046203.494830625,0.0699310302734375,-0.1673583984375,-1.024337768554688,1046203.463699625,0.007314638234674931,-0.2142449170351028,0.2819557785987854,1046203.466247625,19.843017578125,47.83747863769531,-110.11083984375,1046203.427588625,0.09790618310173674,0.1074247868220272,0.1975669966439019,0.1470615118741989,-0.2056482881307602,0.2823799550533295,-0.0314936637878418,-0.01733891665935516,-0.04648286104202271,2,0.095748447313309,0.05817985087861242,0.0539131434829821,0.9922402289431771,0.1051325798034668,-0.1962842345237732,-0.9748947024345398,8.470616340637207,13.52687835693359,-38.76805877685547,-1,2,1046203.288753625,4,2,1617672000.82216,1617670944.349944,44,1.9282,0,0,30.29663,0,0,1617671919.538014,1046200.618327,0,-1.167908,98.15231,1617671999.322264,587422867,1685438189,0,0,1,1617671998.320898,1,0.16,1617672001.000245,-21.98009,-31.24726,0
1617672001.062501,82,0,0,0,0,0,0,0,0,0,1617672001.052773,8.278368949890137,13.01578521728516,-38.90008544921875,303.0409545898438,310.0705261230469,15.45082759857178,1046203.528453625,0.0656890869140625,-0.121673583984375,-0.9613189697265625,1046203.497322625,-0.08849790692329407,-0.3034794628620148,0.2263460606336594,1046203.526240625,19.67048645019531,47.66781616210938,-110.1292724609375,1046203.487360625,0.1148880359917644,0.09018051015880474,0.2006441263157661,-0.0904175266623497,-0.2545715868473053,0.2564683556556702,-0.01813748478889465,0.03401726484298706,-0.04903745651245117,2,0.09731218493378327,0.05051859503505736,0.06157268431759882,0.9920620184123546,0.08825161308050156,-0.1993005722761154,-0.9759564399719238,8.461455345153809,12.93921279907227,-38.58664703369141,-1,2,1046203.288753625,4,2,1617672000.82216,1617670944.349944,44,1.9282,0,0,30.29663,0,0,1617671919.538014,1046200.618327,0,-1.167908,98.15231,1617671999.322264,587422867,1685438189,0,0,1,1617671998.320898,1,0.16,1617672001.047819,-21.98009,-32.13949,0
1617672001.111456,83,0,0,0,0,0,0,0,0,0,1617672001.100245,7.977334022521973,13.10967636108398,-38.93424987792969,303.0844421386719,310.114013671875,15.45130920410156,1046203.562074625,0.062103271484375,-0.14447021484375,-0.908447265625,1046203.564564625,0.1009495183825493,0.03023593313992023,-0.05699697136878967,1046203.526240625,19.67048645019531,47.66781616210938,-110.1292724609375,1046203.547132625,0.1224506972505961,0.07095705942221739,0.1964328454994453,-0.01190384011715651,-0.1557387113571167,-0.02810675464570522,-0.00997905433177948,0.05538614094257355,0.06446743011474609,2,0.0956533540858111,0.04123014292572288,0.06432562982703577,0.992478085610312,0.06953410059213638,-0.1951720267534256,-0.9783010482788086,8.088656425476074,13.08274841308594,-38.89738464355469,-1,2,1046203.288753625,4,2,1617672000.82216,1617670944.349944,44,1.9282,0,0,30.29663,0,0,1617671919.538014,1046200.618327,0,-1.167908,98.15231,1617671999.322264,587422867,1685438189,0,0,1,1617671998.320898,1,0.16,1617672001.111303,-21.98009,-32.66258,0
1617672001.12248,84,0,0,0,0,0,0,0,0,0,1617672001.112552,7.837849617004395,13.1286506652832,-38.98143005371094,303.1401062011719,310.169677734375,15.4515495300293,1046203.595695625,0.101470947265625,-0.1541900634765625,-0.921905517578125,1046203.564564625,0.1009495183825493,0.03023593313992023,-0.05699697136878967,1046203.586236625,19.23027038574219,47.75303649902344,-109.9867706298828,1046203.547132625,0.1224506972505961,0.07095705942221739,0.1964328454994453,-0.01190384011715651,-0.1557387113571167,-0.02810675464570522,-0.00997905433177948,0.05538614094257355,0.06446743011474609,2,0.0956533540858111,0.04123014292572288,0.06432562982703577,0.992478085610312,0.06953410059213638,-0.1951720267534256,-0.9783010482788086,8.088656425476074,13.08274841308594,-38.89738464355469,-1,2,1046203.288753625,4,2,1617672000.82216,1617670944.349944,44,1.9282,0,0,30.29663,0,0,1617671919.538014,1046200.618327,0,-1.167908,98.15231,1617671999.322264,587422867,1685438189,0,0,1,1617671998.320898,1,0.16,1617672001.111303,-21.98009,-32.66258,0
1617672001.165328,85,0,0,0,0,0,0,0,0,0,1617672001.152404,7.971951484680176,12.89176177978516,-38.82585144042969,303.2040710449219,310.233642578125,15.45203113555908,1046203.629318625,0.12200927734375,-0.17034912109375,-0.934295654296875,1046203.598187625,0.2635357677936554,0.2016026228666306,-0.04345906153321266,1046203.586236625,19.23027038574219,47.75303649902344,-109.9867706298828,1046203.606904625,0.1189087223533171,0.07707638170009135,0.2053411334009988,0.2487057894468307,0.1766828745603561,-0.03943665325641632,0.03800561279058456,0.03985379636287689,0.03539592027664185,2,0.09995594254064605,0.04434342956679575,0.06300439136365177,0.992004436327876,0.07538243383169174,-0.2039011418819427,-0.9760849475860596,7.944134712219238,12.89715194702148,-38.55733489990234,-1,2,1046203.288753625,4,2,1617672000.82216,1617670944.349944,44,1.9282,0,0,30.29663,0,0,1617671919.538014,1046200.618327,0,-1.167908,98.15231,1617671999.322264,587422867,1685438189,0,0,1,1617671998.320898,1,0.16,1617672001.133872,-21.98009,-31.10436,0
1617672001.192366,86,0,0,0,0,0,0,0,0,0,1617672001.172622,8.025481224060059,12.76188278198242,-39.13138580322266,303.1776428222656,310.2072143554688,15.45227146148682,1046203.662939625,0.132080078125,-0.1915740966796875,-0.95855712890625,1046203.631808625,0.1487846821546555,0.1598597019910812,0.009793242439627647,1046203.646225625,19.57907104492188,47.3074951171875,-110.2534790039062,1046203.606904625,0.1189087223533171,0.07707638170009135,0.2053411334009988,0.2487057894468307,0.1766828745603561,-0.03943665325641632,0.03800561279058456,0.03985379636287689,0.03539592027664185,2,0.09995594254064605,0.04434342956679575,0.06300439136365177,0.992004436327876,0.07538243383169174,-0.2039011418819427,-0.9760849475860596,7.944134712219238,12.89715194702148,-38.55733489990234,-1,2,1046203.288753625,4,2,1617672000.82216,1617670944.349944,44,1.9282,0,0,30.29663,0,0,1617671919.538014,1046200.618327,0,-1.167908,98.15231,1617671999.322264,587422867,1685438189,0,0,1,1617671998.320898,1,0.16,1617672001.166452,-21.98009,-31.32809,0
1617672001.231983,87,0,0,0,0,0,0,0,0,0,1617672001.212238,8.339011192321777,12.46728897094727,-38.93349456787109,302.8848266601562,309.9143981933594,15.45259284973145,1046203.696562625,0.1346435546875,-0.1917877197265625,-1.001266479492188,1046203.699052625,-0.07482869923114777,0.03287166357040405,0.2598528861999512,1046203.646225625,19.57907104492188,47.3074951171875,-110.2534790039062,1046203.666676625,0.1203428587714428,0.08595696422605817,0.2107688701328921,-0.04787524417042732,0.1151121258735657,0.1369186341762543,0.04858653992414474,0.00895535945892334,-0.0007918477058410645,2,0.1023327702668814,0.04896930871005396,0.06425760312367035,0.9914640030598671,0.08395129442214966,-0.2092118114233017,-0.9742600321769714,8.328629493713379,12.50661087036133,-38.87271118164062,-1,2,1046203.288753625,4,2,1617672000.82216,1617670944.349944,44,1.9282,0,0,30.29663,0,0,1617671919.538014,1046200.618327,0,-1.167908,98.15231,1617671999.322264,587422867,1685438189,0,0,1,1617671998.320898,1,0.16,1617672001.200811,-21.98009,-31.78589,0
1617672001.261685,88,0,0,0,0,0,0,0,0,0,1617672001.252265,8.645651817321777,12.28680419921875,-38.84062194824219,302.2969970703125,309.3265686035156,15.4527702331543,1046203.730183625,0.1286163330078125,-0.161163330078125,-1.021347045898438,1046203.699052625,-0.07482869923114777,0.03287166357040405,0.2598528861999512,1046203.706214625,20.02468872070312,47.05146789550781,-110.0963897705078,1046203.666676625,0.1203428587714428,0.08595696422605817,0.2107688701328921,-0.04787524417042732,0.1151121258735657,0.1369186341762543,0.04858653992414474,0.00895535945892334,-0.0007918477058410645,2,0.1023327702668814,0.04896930871005396,0.06425760312367035,0.9914640030598671,0.08395129442214966,-0.2092118114233017,-0.9742600321769714,8.328629493713379,12.50661087036133,-38.87271118164062,-1,2,1046203.288753625,4,2,1617672000.82216,1617670944.349944,44,1.9282,0,0,30.29663,0,0,1617671919.538014,1046200.618327,0,-1.167908,98.15231,1617671999.322264,587422867,1685438189,0,0,1,1617671998.320898,1,0.16,1617672001.233723,-21.98009,-28.97767,0
1617672001.29143,89,0,0,0,0,0,0,0,0,0,1617672001.272279,8.611029624938965,12.44560241699219,-39.0137939453125,301.9856262207031,309.0151977539062,15.45278072357178,1046203.763804625,0.113037109375,-0.145172119140625,-1.022109985351562,1046203.732673625,-0.1256684511899948,-0.1020621880888939,0.2817661762237549,1046203.706214625,20.02468872070312,47.05146789550781,-110.0963897705078,1046203.726448625,0.1348062154965164,0.08682381955462425,0.2051664893747294,-0.1327979415655136,-0.08686721324920654,0.2843506336212158,0.04179760813713074,0.04545062780380249,-0.04736578464508057,2,0.09916702833224132,0.04996268438395923,0.07136892460917427,0.9912498011185734,0.08489610999822617,-0.2037301659584045,-0.9753392338752747,8.62028980255127,12.33372116088867,-38.86831665039062,-1,2,1046203.288753625,4,2,1617672000.82216,1617670944.349944,44,1.9282,0,0,30.29663,0,0,1617671919.538014,1046200.618327,0,-1.167908,98.15231,1617671999.322264,587422867,1685438189,0,0,1,1617671998.320898,1,0.16,1617672001.276215,-21.98009,-29.87289,0
1617672001.346707,90,0,0,0,0,0,0,0,0,0,1617672001.331593,8.608342170715332,12.58873748779297,-39.1246337890625,301.2826232910156,308.3121948242188,15.45327281951904,1046203.797427625,0.093109130859375,-0.1571044921875,-0.9805450439453125,1046203.799917625,0.01453180424869061,-0.1227791830897331,0.1678420007228851,1046203.766200625,20.0836181640625,47.34780883789062,-110.2849884033203,1046203.786220625,0.1502409852509279,0.07434528681270078,0.1999799228843624,-0.03338641673326492,-0.195611298084259,0.1893609911203384,0.020770363509655,0.04302515089511871,-0.005852043628692627,2,0.09669790708660608,0.04436072397965225,0.07832279210491006,0.9912352195459031,0.0727965235710144,-0.1986496597528458,-0.9773632884025574,8.647896766662598,12.59750747680664,-38.92916870117188,-1,2,1046203.288753625,4,2,1617672000.82216,1617670944.349944,44,1.9282,0,0,30.29663,0,0,1617671919.538014,1046200.618327,0,-1.167908,98.15231,1617671999.322264,587422867,1685438189,0,0,1,1617671998.320898,1,0.16,1617672001.346686,-21.98009,-30.25181,0
1617672001.361392,91,0,0,0,0,0,0,0,0,0,1617672001.352021,8.478955268859863,12.54428863525391,-39.20374298095703,301.1079711914062,308.1375427246094,15.45351314544678,1046203.831048625,0.0944061279296875,-0.16278076171875,-0.9731292724609375,1046203.799917625,0.01453180424869061,-0.1227791830897331,0.1678420007228851,1046203.826189625,19.9559326171875,47.11895751953125,-110.1066284179688,1046203.786220625,0.1502409852509279,0.07434528681270078,0.1999799228843624,-0.03338641673326492,-0.195611298084259,0.1893609911203384,0.020770363509655,0.04302515089511871,-0.005852043628692627,2,0.09669790708660608,0.04436072397965225,0.07832279210491006,0.9912352195459031,0.0727965235710144,-0.1986496597528458,-0.9773632884025574,8.647896766662598,12.59750747680664,-38.92916870117188,-1,2,1046203.288753625,4,2,1617672000.82216,1617670944.349944,44,1.9282,0,0,30.29663,0,0,1617671919.538014,1046200.618327,0,-1.167908,98.15231,1617671999.322264,587422867,1685438189,0,0,1,1617671998.320898,1,0.16,1617672001.346686,-21.98009,-30.25181,0
1617672001.395562,92,0,0,0,0,0,0,0,0,0,1617672001.39135,8.547335624694824,12.34826278686523,-39.04309844970703,300.8564453125,307.8860168457031,15.45389556884766,1046203.86467025,0.1084747314453125,-0.1626129150390625,-0.985137939453125,1046203.833538625,0.04373522847890854,0.03614282235503197,0.1301622688770294,1046203.826189625,19.9559326171875,47.11895751953125,-110.1066284179688,1046203.845992625,0.1593846612429745,0.06958042144502356,0.2016146962821271,0.02934842556715012,0.06017458811402321,0.09645364433526993,0.03596414625644684,0.04293335974216461,-0.008557558059692383,2,0.09750163592470418,0.04250341321010243,0.08264528255930492,0.9908867987479868,0.06811603903770447,-0.200251579284668,-0.9773737788200378,8.552672386169434,12.40429306030273,-39.01787567138672,-1,2,1046203.288753625,4,2,1617672000.82216,1617670944.349944,44,1.9282,0,0,30.29663,0,0,1617671919.538014,1046200.618327,0,-1.167908,98.15231,1617671999.322264,587422867,1685438189,0,0,1,1617671998.320898,1,0.16,1617672001.366454,-21.98009,-30.68491,0
1617672001.431315,93,0,0,0,0,0,0,0,0,0,1617672001.41124,8.562495231628418,12.41296005249023,-39.17044830322266,300.8081665039062,307.8377380371094,15.45392513275146,1046203.89829325,0.12554931640625,-0.1969451904296875,-0.98529052734375,1046203.86716225,0.01242124941200018,0.09117411822080612,0.04026193544268608,1046203.88618125,20.02142333984375,47.22531127929688,-110.0906066894531,1046203.845992625,0.1593846612429745,0.06958042144502356,0.2016146962821271,0.02934842556715012,0.06017458811402321,0.09645364433526993,0.03596414625644684,0.04293335974216461,-0.008557558059692383,2,0.09750163592470418,0.04250341321010243,0.08264528255930492,0.9908867987479868,0.06811603903770447,-0.200251579284668,-0.9773737788200378,8.552672386169434,12.40429306030273,-39.01787567138672,-1,2,1046203.288753625,4,2,1617672000.82216,1617670944.349944,44,1.9282,0,0,30.29663,0,0,1617671919.538014,1046200.618327,0,-1.167908,98.15231,1617671999.322264,587422867,1685438189,0,0,1,1617671998.320898,1,0.16,1617672001.404581,-21.98009,-30.96825,0
1617672001.46479,94,0,0,0,0,0,0,0,0,0,1617672001.451244,8.64594554901123,12.49078750610352,-39.05787658691406,300.7021789550781,307.7317504882812,15.45395374298096,1046203.93191425,0.1167449951171875,-0.2156219482421875,-0.9656524658203125,1046203.90078325,-0.03984168916940689,0.05529334768652916,0.039044339209795,1046203.88618125,20.02142333984375,47.22531127929688,-110.0906066894531,1046203.90576525,0.1618937843015479,0.07474042080833508,0.1985396480690099,-0.05834320560097694,0.03463055938482285,0.04866092652082443,0.04805759340524673,-0.0116703063249588,-0.004131734371185303,2,0.0957072497803913,0.04506387683107951,0.08409491672980485,0.9908266711060382,0.07320399582386017,-0.1972378790378571,-0.9776187539100647,8.675044059753418,12.52693176269531,-38.91764831542969,-1,2,1046203.288753625,4,2,1617672000.82216,1617670944.349944,44,1.9282,0,0,30.29663,0,0,1617671919.538014,1046200.618327,0,-1.167908,98.15231,1617671999.322264,587422867,1685438189,0,0,1,1617671998.320898,1,0.16,1617672001.433916,-21.98009,-31.31627,0
1617672001.500707,95,0,0,0,0,0,0,0,0,0,1617672001.491123,8.850573539733887,12.40448760986328,-39.02246856689453,300.4953308105469,307.52490234375,15.45399284362793,1046203.96553725,0.0913238525390625,-0.2082672119140625,-0.9317779541015625,1046203.93440425,-0.0855971947312355,-0.031479362398386,0.08970458805561066,1046203.94617525,20.23971557617188,47.20770263671875,-110.2322998046875,1046203.90576525,0.1618937843015479,0.07474042080833508,0.1985396480690099,-0.05834320560097694,0.03463055938482285,0.04866092652082443,0.04805759340524673,-0.0116703063249588,-0.004131734371185303,2,0.0957072497803913,0.04506387683107951,0.08409491672980485,0.9908266711060382,0.07320399582386017,-0.1972378790378571,-0.9776187539100647,8.675044059753418,12.52693176269531,-38.91764831542969,-1,2,1046203.288753625,4,2,1617672000.82216,1617670944.349944,44,1.9282,0,0,30.29663,0,0,1617671919.538014,1046200.618327,0,-1.167908,98.15231,1617671999.322264,587422867,1685438189,0,0,1,1617671998.320898,1,0.16,1617672001.500588,-21.98009,-30.83526,0
1617672001.530548,96,0,0,0,0,0,0,0,0,0,1617672001.511202,8.861954689025879,12.56213760375977,-39.03765869140625,300.3694458007812,307.3990173339844,15.45401477813721,1046203.99915825,0.0762786865234375,-0.1951904296875,-0.9342193603515625,1046203.96802725,-0.1153582856059074,0.00762889115139842,0.1025045365095139,1046203.94617525,20.23971557617188,47.20770263671875,-110.2322998046875,1046203.96553725,0.1671628475829848,0.07465455276865668,0.1917545762919819,-0.1246035322546959,-0.005294132046401501,0.106001228094101,0.01184955984354019,-0.01388627290725708,0.05292695760726929,2,0.09222862722706303,0.04500394890282614,0.08660289767785706,0.9909431890576104,0.07321818172931671,-0.1905816048383713,-0.978937029838562,8.84085750579834,12.45885467529297,-38.96179962158203,-1,2,1046203.288753625,4,2,1617672000.82216,1617670944.349944,44,1.9282,0,0,30.29663,0,0,1617671919.538014,1046201.567154,0,-1.167908,98.15233,1617671999.322264,587422867,1685438189,0,0,1,1617671998.320898,1,0.16,1617672001.500588,-21.98009,-30.83526,0
1617672001.560992,97,0,0,0,0,0,0,0,0,0,1617672001.551323,8.824288368225098,12.79747009277344,-38.80754852294922,300.0872497558594,307.1168212890625,15.45410537719727,1046204.03277925,0.089508056640625,-0.1732177734375,-0.9934844970703125,1046204.00164825,-0.1221906244754791,0.149752214550972,0.1089280843734741,1046204.00616625,20.25701904296875,47.51290893554688,-110.1170806884766,1046203.96553725,0.1671628475829848,0.07465455276865668,0.1917545762919819,-0.1246035322546959,-0.005294132046401501,0.106001228094101,0.01184955984354019,-0.01388627290725708,0.05292695760726929,2,0.09222862722706303,0.04500394890282614,0.08660289767785706,0.9909431890576104,0.07321818172931671,-0.1905816048383713,-0.978937029838562,8.84085750579834,12.45885467529297,-38.96179962158203,-1,2,1046203.288753625,4,2,1617672000.82216,1617670944.349944,44,1.9282,0,0,30.29663,0,0,1617671919.538014,1046201.567154,0,-1.167908,98.15233,1617671999.322264,587422867,1685438189,0,0,1,1617671998.320898,1,0.16,1617672001.533408,-21.98009,-31.22538,0
1617672001.60027,98,0,0,0,0,0,0,0,0,0,1617672001.59634,9.042845726013184,13.02106094360352,-38.75770568847656,299.9199523925781,306.9495239257812,15.45419311523438,1046204.06640225,0.0959930419921875,-0.1672821044921875,-1.005279541015625,1046204.03527125,-0.1152205988764763,0.09447457641363144,0.06767118722200394,1046204.06616325,20.59132385253906,47.68212890625,-109.8142852783203,1046204.02530925,0.1738506168911011,0.08195374324815738,0.1860022036436787,-0.1185501664876938,0.1213361695408821,0.08852671831846237,0.009164817631244659,0.0123392790555954,-0.01477915048599243,2,0.08889771500282467,0.04868993594876399,0.09015811050535261,0.9907563879388172,0.08045002818107605,-0.1849315464496613,-0.9794529676437378,8.891722679138184,12.87590026855469,-38.81564331054688,-1,2,1046203.288753625,4,2,1617672000.82216,1617670944.349944,44,1.9282,0,0,30.29663,0,0,1617671919.538014,1046201.567154,0,-1.167908,98.15233,1617671999.322264,587422867,1685438189,0,0,1,1617671998.320898,1,0.16,1617672001.576969,-21.98009,-31.81116,0
1617672001.634974,99,0,0,0,0,0,0,0,0,0,1617672001.630423,9.265326499938965,13.02394485473633,-38.03191375732422,299.9200439453125,306.9496154785156,15.4542407989502,1046204.10002325,0.0916748046875,-0.150054931640625,-0.9954986572265625,1046204.06889225,-0.1649391502141953,0.001733185257762671,0.01933907717466354,1046204.06616325,20.59132385253906,47.68212890625,-109.8142852783203,1046204.08508125,0.1768932700825299,0.08361206347953165,0.178487103908832,-0.1672339141368866,-0.07392680644989014,-0.01082730107009411,0.01296588033437729,0.02525810897350311,-0.02352064847946167,2,0.08502217601872454,0.04933048510249533,0.0916132956762829,0.9909312316235859,0.08218791335821152,-0.1775409132242203,-0.9806754589080811,9.239951133728027,12.9975700378418,-38.20410919189453,-1,2,1046203.288753625,4,2,1617672000.82216,1617670944.349944,44,1.9282,0,0,30.29663,0,0,1617671919.538014,1046201.567154,0,-1.167908,98.15233,1617671999.322264,587422867,1685438189,0,0,1,1617671998.320898,1,0.16,1617672001.634925,-21.98009,-29.53017,0
1617672001.659898,100,0,0,0,0,0,0,0,0,0,1617672001.650394,9.176705360412598,13.150634765625,-38.47566986083984,300.0208435058594,307.0504150390625,15.45425987243652,1046204.13364425,0.07989501953125,-0.151580810546875,-0.969940185546875,1046204.10251325,-0.1214729025959969,-0.07918909192085266,-0.0613110288977623,1046204.12615525,20.62910461425781,47.95538330078125,-109.5751953125,1046204.08508125,0.1768932700825299,0.08361206347953165,0.178487103908832,-0.1672339141368866,-0.07392680644989014,-0.01082730107009411,0.01296588033437729,0.02525810897350311,-0.02352064847946167,2,0.08502217601872454,0.04933048510249533,0.0916132956762829,0.9909312316235859,0.08218791335821152,-0.1775409132242203,-0.9806754589080811,9.239951133728027,12.9975700378418,-38.20410919189453,-1,2,1046203.288753625,4,2,1617672000.82216,1617670944.349944,44,1.9282,0,0,30.29663,0,0,1617671919.538014,1046201.567154,0,-1.167908,98.15233,1617671999.322264,587422867,1685438189,0,0,1,1617671998.320898,1,0.16,1617672001.634925,-21.98009,-29.53017,0
1617672001.707098,101,0,0,0,0,0,0,0,0,0,1617672001.690572,8.894009590148926,13.39136123657227,-38.74436950683594,300.4727478027344,307.5023193359375,15.45429992675781,1046204.16726725,0.0769500732421875,-0.1997833251953125,-0.934783935546875,1046204.13613625,0.04627056047320366,-0.04722556844353676,-0.1939218044281006,1046204.12615525,20.62910461425781,47.95538330078125,-109.5751953125,1046204.14485325,0.170550806641657,0.08101750201293346,0.1735500806371127,0.07569163292646408,-0.02693658322095871,-0.2127844840288162,-0.002549499273300171,-0.006091907620429993,0.0345425009727478,2,0.08284412086179714,0.0475741734960897,0.0882790319751261,0.9915041365138781,0.07971318066120148,-0.1726801842451096,-0.9817470908164978,9.033764839172363,13.30941009521484,-38.65880584716797,-1,2,1046203.288753625,4,2,1617672000.82216,1617670944.349944,44,1.9282,0,0,30.29663,0,0,1617671919.538014,1046201.567154,0,-1.167908,98.15233,1617671999.322264,587422867,1685438189,0,0,1,1617671998.320898,1,0.16,1617672001.707068,-23.09464,-30.30388,0
1617672001.730341,102,0,0,0,0,0,0,0,0,0,1617672001.710192,8.808356285095215,13.27780532836914,-38.72144317626953,300.7264709472656,307.7560424804688,15.45432090759277,1046204.20088825,0.0865631103515625,-0.2424163818359375,-0.936737060546875,1046204.16975725,0.1737848371267319,0.08896848559379578,-0.2234980762004852,1046204.18614725,20.21165466308594,47.79617309570312,-109.8271484375,1046204.14485325,0.170550806641657,0.08101750201293346,0.1735500806371127,0.07569163292646408,-0.02693658322095871,-0.2127844840288162,-0.002549499273300171,-0.006091907620429993,0.0345425009727478,2,0.08284412086179714,0.0475741734960897,0.0882790319751261,0.9915041365138781,0.07971318066120148,-0.1726801842451096,-0.9817470908164978,9.033764839172363,13.30941009521484,-38.65880584716797,-1,2,1046203.288753625,4,2,1617672000.82216,1617670944.349944,44,1.9282,0,0,30.29663,0,0,1617671919.538014,1046201.567154,0,-1.167908,98.15233,1617671999.322264,587422867,1685438189,0,0,1,1617671998.320898,1,0.16,1617672001.707068,-23.09464,-30.30388,0
1617672001.769529,103,0,0,0,0,0,0,0,0,0,1617672001.750262,8.907000541687012,13.10859298706055,-38.60747528076172,301.0653991699219,308.094970703125,15.45438098907471,1046204.23451125,0.09393310546875,-0.237823486328125,-0.9752197265625,1046204.20337825,0.1279704868793488,0.1805149167776108,-0.1529908776283264,1046204.18614725,20.21165466308594,47.79617309570312,-109.8271484375,1046204.20462525,0.1573148144821361,0.08895166999475475,0.1795366456413611,0.1090357378125191,0.1770844608545303,-0.1456789523363113,-0.000721372663974762,-0.07196046411991119,0.03528863191604614,2,0.08580271991477353,0.05118246577662933,0.08215607184421297,0.991599016081821,0.08740653842687607,-0.1785736829042435,-0.9800364971160889,8.863930702209473,13.11169052124023,-38.56660461425781,-1,2,1046203.288753625,4,2,1617672000.82216,1617670944.349944,44,1.9282,0,0,30.29663,0,0,1617671919.538014,1046201.567154,0,-1.167908,98.15233,1617671999.322264,587422867,1685438189,0,0,1,1617671998.320898,1,0.16,1617672001.767554,-24.76648,-31.44342,0
1617672001.799578,104,0,0,0,0,0,0,0,0,0,1617672001.790242,9.130938529968262,13.0181999206543,-38.67735290527344,301.02001953125,308.0495910644531,15.45447444915771,1046204.26813225,0.1014404296875,-0.1789093017578125,-1.032913208007812,1046204.23700125,-0.07941199839115143,0.1887448877096176,-0.005920207127928734,1046204.24613325,20.49343872070312,47.70875549316406,-109.9481506347656,1046204.20462525,0.1573148144821361,0.08895166999475475,0.1795366456413611,0.1090357378125191,0.1770844608545303,-0.1456789523363113,-0.000721372663974762,-0.07196046411991119,0.03528863191604614,2,0.08580271991477353,0.05118246577662933,0.08215607184421297,0.991599016081821,0.08740653842687607,-0.1785736829042435,-0.9800364971160889,8.863930702209473,13.11169052124023,-38.56660461425781,-1,2,1046203.288753625,4,2,1617672000.82216,1617670944.349944,44,1.9282,0,0,30.29663,0,0,1617671919.538014,1046201.567154,0,-1.167908,98.15233,1617671999.322264,587422867,1685438189,0,0,1,1617671998.320898,1,0.16,1617672001.767554,-24.76648,-31.44342,0
1617672001.82931,105,0,0,0,0,0,0,0,0,0,1617672001.810038,9.275607109069824,13.03087615966797,-38.57644653320312,300.9495849609375,307.9791564941406,15.45449638366699,1046204.30175325,0.1042022705078125,-0.1184844970703125,-1.045379638671875,1046204.27062225,-0.2265623062849045,0.06969092786312103,0.03830024972558022,1046204.24613325,20.49343872070312,47.70875549316406,-109.9481506347656,1046204.26439725,0.1562703051597957,0.09881874215373343,0.1771026917374178,-0.2237547636032104,0.1029583513736725,0.04505334049463272,0.005012258887290955,0.007232904434204102,-0.06292444467544556,2,0.08421823848478395,0.05594013868492231,0.08200939923885975,0.9914900632128569,0.09711480885744095,-0.1761783212423325,-0.9795559644699097,9.245577812194824,13.00267028808594,-38.56636047363281,-1,2,1046203.288753625,4,2,1617672000.82216,1617670944.349944,44,1.9282,0,0,30.29663,0,0,1617671919.538014,1046201.567154,0,-1.167908,98.15233,1617671999.322264,587422867,1685438189,0,0,1,1617671998.320898,1,0.16,1617672001.801241,-24.96627,-28.92925,0
1617672001.885499,106,0,0,0,0,0,0,0,0,0,1617672001.869617,9.287848472595215,13.64425277709961,-38.41042327880859,301.2140808105469,308.24365234375,15.45463848114014,1046204.33537625,0.112701416015625,-0.1219024658203125,-1.026641845703125,1046204.33786625,0.003126018447801471,-0.01673663593828678,-0.1911547780036926,1046204.30611525,20.82275390625,48.11199951171875,-109.7362518310547,1046204.32416925,0.1555574875019647,0.09791245188039897,0.1688417646716516,-0.09248526394367218,-0.04219124466180801,-0.1485332250595093,0.01580135524272919,0.04903727769851685,-0.04710912704467773,2,0.08017614875458337,0.05515886984366137,0.08144476946029544,0.9919152786756111,0.09636599570512772,-0.1680406928062439,-0.9810585975646973,9.290165901184082,13.57689666748047,-38.41596221923828,-1,2,1046203.288753625,4,2,1617672000.82216,1617670944.349944,44,1.9282,0,0,30.29663,0,0,1617671919.538014,1046201.567154,0,-1.167908,98.15233,1617671999.322264,587422867,1685438189,0,0,1,1617671998.320898,1,0.16,1617672001.876903,-24.42946,-30.58619,0
1617672001.899332,107,0,0,0,0,0,0,0,0,0,1617672001.889549,9.219649314880371,13.7121467590332,-38.47721099853516,301.46484375,308.4944152832031,15.45474910736084,1046204.36899725,0.1241607666015625,-0.1634063720703125,-1.013214111328125,1046204.37148725,0.1627409756183624,-0.0301405917853117,-0.2426142394542694,1046204.36609825,20.693603515625,48.31663513183594,-109.4946594238281,1046204.32416925,0.1555574875019647,0.09791245188039897,0.1688417646716516,-0.09248526394367218,-0.04219124466180801,-0.1485332250595093,0.01580135524272919,0.04903727769851685,-0.04710912704467773,2,0.08017614875458337,0.05515886984366137,0.08144476946029544,0.9919152786756111,0.09636599570512772,-0.1680406928062439,-0.9810585975646973,9.290165901184082,13.57689666748047,-38.41596221923828,-1,2,1046203.288753625,4,2,1617672000.82216,1617670944.349944,44,1.9282,0,0,30.29663,0,0,1617671919.538014,1046201.567154,0,-1.167908,98.15233,1617671999.322264,587422867,1685438189,0,0,1,1617671998.320898,1,0.16,1617672001.876903,-24.42946,-30.58619,0
1617672001.936298,108,0,0,0,0,0,0,0,0,0,1617672001.929283,9.121109962463379,13.62758636474609,-38.32257080078125,302.0335083007812,309.0630798339844,15.45501232147217,1046204.40261825,0.1201934814453125,-0.2032470703125,-0.9898834228515625,1046204.37148725,0.1627409756183624,-0.0301405917853117,-0.2426142394542694,1046204.36609825,20.693603515625,48.31663513183594,-109.4946594238281,1046204.38394125,0.1422703593153347,0.0983169492023685,0.1697762690191119,0.177695706486702,-0.01985342614352703,-0.2356908917427063,0.02442266047000885,-0.02758671343326569,-0.01199603080749512,2,0.08098966276601823,0.05485683019498493,0.07488946656760487,0.9923824596636687,0.09674736857414246,-0.168961837887764,-0.9808627963066101,9.198544502258301,13.55354309082031,-38.15952301025391,-1,2,1046203.288753625,4,2,1617672000.82216,1617670944.349944,44,1.9282,0,0,30.29663,0,0,1617671919.538014,1046201.567154,0,-1.167908,98.15233,1617671999.322264,587422867,1685438189,0,0,1,1617671998.320898,1,0.16,1617672001.900752,-24.42946,-31.21773,0
1617672001.969246,109,0,0,0,0,0,0,0,0,0,1617672001.949235,8.966330528259277,13.53984069824219,-38.61733245849609,302.3122863769531,309.3418579101562,15.45514392852783,1046204.43624125,0.1167449951171875,-0.219970703125,-0.97271728515625,1046204.40511025,0.2025877237319946,-0.01699869148433208,-0.2311940789222717,1046204.42608525,20.33567810058594,48.18891906738281,-109.7923431396484,1046204.38394125,0.1422703593153347,0.0983169492023685,0.1697762690191119,0.177695706486702,-0.01985342614352703,-0.2356908917427063,0.02442266047000885,-0.02758671343326569,-0.01199603080749512,2,0.08098966276601823,0.05485683019498493,0.07488946656760487,0.9923824596636687,0.09674736857414246,-0.168961837887764,-0.9808627963066101,9.198544502258301,13.55354309082031,-38.15952301025391,-1,2,1046203.288753625,4,2,1617672000.82216,1617670944.349944,44,1.9282,0,0,30.29663,0,0,1617671919.538014,1046201.567154,0,-1.167908,98.15233,1617671999.322264,587422867,1685438189,0,0,1,1617671998.320898,1,0.16,1617672001.967429,-24.42946,-32.33893,0
1617672002.004308,110,0,0,0,0,0,0,0,0,0,1617672001.989268,8.888228416442871,13.31874084472656,-38.73744201660156,302.7778930664062,309.8074645996094,15.45534896850586,1046204.46986225,0.1009063720703125,-0.2243194580078125,-0.971343994140625,1046204.47235225,0.09638912230730057,0.08157262206077576,-0.09397044032812119,1046204.42608525,20.33567810058594,48.18891906738281,-109.7923431396484,1046204.44371325,0.1276793062397803,0.1009004617739797,0.1764938986903936,0.1378323882818222,0.009076869115233421,-0.1845224499702454,0.009554319083690643,-0.04837431013584137,0.006512105464935303,2,0.08463636209683631,0.05574564339277412,0.06790255793885347,0.9925313229968337,0.09916454553604126,-0.1755790263414383,-0.979458212852478,8.961905479431152,13.31144714355469,-38.542724609375,-1,2,1046203.288753625,4,2,1617672000.82216,1617670944.349944,44,1.9282,0,0,30.29663,0,0,1617671919.538014,1046201.567154,0,-1.167908,98.15233,1617671999.322264,587422867,1685438189,0,0,1,1617671998.320898,1,0.16,1617672002.004261,-24.35695,-31.14996,0
1617672002.038797,111,0,0,0,0,0,0,0,0,0,1617672002.029312,8.879612922668457,13.07001113891602,-38.69530487060547,302.9277648925781,309.9573364257812,15.45547485351562,1046204.50348525,0.095672607421875,-0.1573944091796875,-0.9998321533203125,1046204.47235225,0.09638912230730057,0.08157262206077576,-0.09397044032812119,1046204.48607125,20.29190063476562,47.83251953125,-109.8714447021484,1046204.44371325,0.1276793062397803,0.1009004617739797,0.1764938986903936,0.1378323882818222,0.009076869115233421,-0.1845224499702454,0.009554319083690643,-0.04837431013584137,0.006512105464935303,2,0.08463636209683631,0.05574564339277412,0.06790255793885347,0.9925313229968337,0.09916454553604126,-0.1755790263414383,-0.979458212852478,8.961905479431152,13.31144714355469,-38.542724609375,-1,2,1046203.288753625,4,2,1617672000.82216,1617670944.349944,44,1.9282,0,0,30.29663,0,0,1617671919.538014,1046201.567154,0,-1.167908,98.15233,1617671999.322264,587422867,1685438189,0,0,1,1617671998.320898,1,0.16,1617672002.033928,-24.35695,-31.32361,0
1617672002.072633,112,0,0,0,0,0,0,0,0,0,1617672002.068839,8.885767936706543,13.08357238769531,-38.62751770019531,303.0033874511719,310.032958984375,15.45553874969482,1046204.53710625,0.0829315185546875,-0.088897705078125,-1.01123046875,1046204.50597525,-0.07129495590925217,0.02023283392190933,-0.0119860889390111,1046204.48607125,20.29190063476562,47.83251953125,-109.8714447021484,1046204.50348525,0.121776972459541,0.1058264410276583,0.1810423205585472,-0.07556766271591187,0.01984770037233829,-0.008007640019059181,-0.00989329069852829,0.04542656242847443,-0.02276188135147095,2,0.08689864469981834,0.05806745587190714,0.0652890472839644,0.9923780707249337,0.1039026826620102,-0.1800549626350403,-0.9781535863876343,8.886792182922363,13.07346725463867,-38.69090270996094,-1,2,1046203.288753625,4,2,1617672000.82216,1617670944.349944,44,1.9282,0,0,30.29663,0,0,1617671919.538014,1046201.567154,0,-1.167908,98.15233,1617671999.322264,587422867,1685438189,0,0,1,1617671998.320898,1,0.16,1617672002.0726,-24.35695,-31.81303,0
1617672002.098396,113,0,0,0,0,0,0,0,0,0,1617672002.089304,8.971898078918457,13.05651092529297,-38.42726898193359,303.1883850097656,310.2179565429688,15.4555549621582,1046204.57072725,0.0775299072265625,-0.0985260009765625,-0.98260498046875,1046204.53959625,-0.1018842831254005,-0.08135531097650528,-0.1170784160494804,1046204.54605425,20.39476013183594,47.76602172851562,-109.6534729003906,1046204.50348525,0.121776972459541,0.1058264410276583,0.1810423205585472,-0.07556766271591187,0.01984770037233829,-0.008007640019059181,-0.00989329069852829,0.04542656242847443,-0.02276188135147095,2,0.08689864469981834,0.05806745587190714,0.0652890472839644,0.9923780707249337,0.1039026826620102,-0.1800549626350403,-0.9781535863876343,8.886792182922363,13.07346725463867,-38.69090270996094,-1,2,1046203.288753625,4,2,1617672000.82216,1617670944.349944,44,1.9282,0,0,30.29663,0,0,1617671919.538014,1046201.567154,0,-1.167908,98.15233,1617671999.322264,587422867,1685438189,0,0,1,1617671998.320898,1,0.16,1617672002.0726,-24.35695,-31.81303,0
1617672002.138452,114,0,0,0,0,0,0,0,0,0,1617672002.128733,8.679877281188965,13.25651931762695,-38.62271118164062,303.7518615722656,310.7814331054688,15.45558929443359,1046204.60435025,0.1016845703125,-0.1530914306640625,-0.989715576171875,1046204.60684025,0.1962611228227615,0.1227528154850006,-0.1955308765172958,1046204.60604425,20.08370971679688,47.83987426757812,-109.8252258300781,1046204.56325725,0.1165582119024603,0.1036576074937594,0.1767421951657233,-0.02815874665975571,-0.04562965035438538,-0.2301156967878342,-0.0237656831741333,0.07574096322059631,-0.003421485424041748,2,0.08498227052995921,0.05664950962794899,0.06250532212484505,0.9928051201961381,0.1018601581454277,-0.1758234649896622,-0.9791377186775208,8.907687187194824,13.09965515136719,-38.42505645751953,-1,2,1046203.288753625,4,2,1617672000.82216,1617670944.349944,44,1.9282,0,0,30.29663,0,0,1617671919.538014,1046201.567154,0,-1.167908,98.15233,1617671999.322264,587422867,1685438189,0,0,1,1617671998.320898,1,0.16,1617672002.134026,-23.66837,-31.90146,0
1617672002.177917,115,0,0,0,0,0,0,0,0,0,1617672002.16847,8.72297191619873,12.99235916137695,-38.46692657470703,304.1599426269531,311.1895141601562,15.45563697814941,1046204.63797025,0.1219940185546875,-0.1326141357421875,-1.007843017578125,1046204.60684025,0.1962611228227615,0.1227528154850006,-0.1955308765172958,1046204.60604425,20.08370971679688,47.83987426757812,-109.8252258300781,1046204.62302825,0.1025449179803189,0.1087727112759518,0.1785044453202578,0.1993115544319153,0.07169659435749054,-0.1594702154397964,0.01499278098344803,0.04120533168315887,-0.03156280517578125,2,0.08611018175024064,0.05863337714709817,0.05580943281696427,0.9929916950459066,0.106833390891552,-0.1775579750537872,-0.978294312953949,8.707118034362793,13.04744720458984,-38.51312255859375,-1,2,1046203.288753625,4,2,1617672000.82216,1617670944.349944,44,1.9282,0,0,30.29663,0,0,1617671919.538014,1046201.567154,0,-1.167908,98.15233,1617671999.322264,587422867,1685438189,0,0,1,1617671998.320898,1,0.16,1617672002.177755,-23.66837,-28.86827,0
