loggingTime(txt),locationTimestamp_since1970(s),locationLatitude(WGS84),locationLongitude(WGS84),locationAltitude(m),locationSpeed(m/s),locationCourse(°),locationVerticalAccuracy(m),locationHorizontalAccuracy(m),locationFloor(Z),accelerometerTimestamp_sinceReboot(s),accelerometerAccelerationX(G),accelerometerAccelerationY(G),accelerometerAccelerationZ(G),motionTimestamp_sinceReboot(s),motionYaw(rad),motionRoll(rad),motionPitch(rad),motionRotationRateX(rad/s),motionRotationRateY(rad/s),motionRotationRateZ(rad/s),motionUserAccelerationX(G),motionUserAccelerationY(G),motionUserAccelerationZ(G),motionAttitudeReferenceFrame(txt),motionQuaternionX(R),motionQuaternionY(R),motionQuaternionZ(R),motionQuaternionW(R),motionGravityX(G),motionGravityY(G),motionGravityZ(G),motionMagneticFieldX(µT),motionMagneticFieldY(µT),motionMagneticFieldZ(µT),motionHeading(°),motionMagneticFieldCalibrationAccuracy(Z),activityTimestamp_sinceReboot(s),activity(txt),activityActivityConfidence(Z),activityActivityStartDate(txt),pedometerStartDate(txt),pedometerNumberofSteps(N),pedometerAverageActivePace(s/m),pedometerCurrentPace(s/m),pedometerCurrentCadence(steps/s),pedometerDistance(m),pedometerFloorAscended(N),pedometerFloorDescended(N),pedometerEndDate(txt),altimeterTimestamp_sinceReboot(s),altimeterReset(bool),altimeterRelativeAltitude(m),altimeterPressure(kPa),batteryState(N),batteryLevel(R)
2021-04-05 21:51:48.061 -0400,0,0,0,0,0,0,0,0,0,16185.83885291667,-0.1082916259765625,-0.2276458740234375,-0.9672088623046875,16185.83379791667,2.121566890525497,-0.1022418310879254,0.22548846152248,-0.008307786658406258,-0.05002349615097046,-0.02537582255899906,-0.006934799253940582,-0.008396849036216736,-0.0003451108932495117,XArbitraryZVertical,-0.09916476689936587,-0.07327221589201756,-0.8632578315166295,-0.4894725190361928,-0.0994800478219986,-0.2235824912786484,-0.9695950746536255,0,0,0,-1,-1,16180.22689541667,walking,2,2021-04-05 21:51:42.456 -0400,2021-04-05 19:23:45.401 -0400,774,1.458092,0,0,572.4493,0,0,2021-04-05 21:51:09.036 -0400,639366707.6002516,0,-2.68,98.19874,1,0.64
2021-04-05 21:51:48.092 -0400,0,0,0,0,0,0,0,0,0,16185.87405091667,-0.1034088134765625,-0.232574462890625,-0.955963134765625,16185.86397991667,2.120527474458629,-0.1023278315302872,0.2248900269606855,-0.03211284056305885,-0.006576170213520527,-0.02537836879491806,-0.01080504059791565,-0.004219427704811096,0.01844078302383423,XArbitraryZVertical,-0.09909634647307679,-0.07293968236683357,-0.8630358190731098,-0.4899274601902952,-0.09957708418369293,-0.2229991555213928,-0.969719409942627,0,0,0,-1,-1,16180.22689541667,walking,2,2021-04-05 21:51:42.456 -0400,2021-04-05 19:23:45.401 -0400,774,1.458092,0,0,572.4493,0,0,2021-04-05 21:51:09.036 -0400,639366707.6002516,0,-2.68,98.19874,1,0.64
2021-04-05 21:51:48.131 -0400,0,0,0,0,0,0,0,0,0,16185.90925691667,-0.0984649658203125,-0.2214813232421875,-0.9764251708984375,16185.89416191667,2.119469567272658,-0.1035702316086727,0.2239790599404794,-0.04718326777219772,-0.06501545011997223,-0.04694018512964249,-0.0007140114903450012,-0.009151116013526917,0.008874416351318359,XArbitraryZVertical,-0.09945207322769038,-0.07218706233069495,-0.8627707007178023,-0.4904335918369166,-0.1008027493953705,-0.2221110463142395,-0.9697965979576111,0,0,0,-1,-1,16180.22689541667,walking,2,2021-04-05 21:51:42.456 -0400,2021-04-05 19:23:45.401 -0400,774,1.458092,0,0,572.4493,0,0,2021-04-05 21:51:09.036 -0400,639366707.6002516,0,-2.68,98.19874,1,0.64
2021-04-05 21:51:48.162 -0400,0,0,0,0,0,0,0,0,0,16185.94442391667,-0.091644287109375,-0.2159423828125,-0.9884796142578125,16185.92431291667,2.117765474197944,-0.1050701892672494,0.222359293806149,-0.07204239815473557,-0.05179621279239655,-0.04457664862275124,0.004150301218032837,-0.001331329345703125,-0.008697867393493652,XArbitraryZVertical,-0.09977068550713215,-0.07103089755200113,-0.8623768294230781,-0.4912296705611692,-0.102294884622097,-0.2205314487218857,-0.9700008630752563,0,0,0,-1,-1,16180.22689541667,walking,2,2021-04-05 21:51:42.456 -0400,2021-04-05 19:23:45.401 -0400,774,1.458092,0,0,572.4493,0,0,2021-04-05 21:51:09.036 -0400,639366707.6002516,0,-2.68,98.19874,1,0.64
2021-04-05 21:51:48.203 -0400,0,0,0,0,0,0,0,0,0,16185.97963091667,-0.0926055908203125,-0.21942138671875,-0.9790802001953125,16185.95449491667,2.116482834173957,-0.1066811203370446,0.221160095336408,-0.0337802916765213,-0.02907551638782024,-0.02829739451408386,0.01224110275506973,0.003419250249862671,-0.01838254928588867,XArbitraryZVertical,-0.1002218019479955,-0.07005041688045303,-0.8620542868561801,-0.4918445079102734,-0.1038854420185089,-0.2193616032600403,-0.9700970649719238,0,0,0,-1,-1,16180.22689541667,walking,2,2021-04-05 21:51:42.456 -0400,2021-04-05 19:23:45.401 -0400,774,1.458092,0,0,572.4493,0,0,2021-04-05 21:51:09.036 -0400,639366707.6002516,0,-2.68,98.19874,1,0.64
2021-04-05 21:51:48.233 -0400,0,0,0,0,0,0,0,0,0,16186.01482891667,-0.096893310546875,-0.2147674560546875,-0.9760894775390625,16185.98464691667,2.115824999585552,-0.1069703721449402,0.2210586907286643,-0.01981737092137337,-0.01607021689414978,-0.01379037275910378,0.0116848349571228,-0.001882925629615784,-0.01105105876922607,XArbitraryZVertical,-0.100345060197598,-0.06990229342332815,-0.8618841077816082,-0.4921384389938619,-0.1041684150695801,-0.2192626744508743,-0.9700890779495239,0,0,0,-1,-1,16180.22689541667,walking,2,2021-04-05 21:51:42.456 -0400,2021-04-05 19:23:45.401 -0400,774,1.458092,0,0,572.4493,0,0,2021-04-05 21:51:09.036 -0400,639366707.6002516,0,-2.68,98.19874,1,0.64
2021-04-05 21:51:48.273 -0400,0,0,0,0,0,0,0,0,0,16186.05003491667,-0.0991363525390625,-0.219268798828125,-0.97821044921875,16186.04500991667,2.116375874398786,-0.1066924355947903,0.2206066728747827,0.02772742323577404,0.01206710375845432,0.02663867548108101,0.003872662782669067,0.0001632124185562134,-0.009367287158966064,XArbitraryZVertical,-0.1000971489493215,-0.06980214741232024,-0.8620611302350851,-0.4918931170725184,-0.1039093285799026,-0.2188216298818588,-0.9702164530754089,0,0,0,-1,-1,16180.22689541667,walking,2,2021-04-05 21:51:42.456 -0400,2021-04-05 19:23:45.401 -0400,774,1.458092,0,0,572.4493,0,0,2021-04-05 21:51:09.036 -0400,639366707.6002516,0,-2.68,98.19874,1,0.64
2021-04-05 21:51:48.303 -0400,0,0,0,0,0,0,0,0,0,16186.08523291667,-0.1040802001953125,-0.2202301025390625,-0.970306396484375,16186.07516191667,2.116649606389893,-0.1060595270253923,0.2216936191392988,0.01886814087629318,0.02440389059484005,-0.004585073795169592,0.001875318586826324,0.0003844648599624634,-0.007692456245422363,XArbitraryZVertical,-0.1000764790243268,-0.07044313306803075,-0.8620938267544748,-0.4917485535021083,-0.1032700091600418,-0.2198821008205414,-0.9700449109077454,0,0,0,-1,-1,16180.22689541667,walking,2,2021-04-05 21:51:42.456 -0400,2021-04-05 19:23:45.401 -0400,774,1.458092,0,0,572.4493,0,0,2021-04-05 21:51:09.036 -0400,639366707.6002516,0,-2.68,98.19874,1,0.64
2021-04-05 21:51:48.343 -0400,0,0,0,0,0,0,0,0,0,16186.12043891667,-0.0995025634765625,-0.2183990478515625,-0.967987060546875,16186.10534391667,2.116536150204277,-0.1052560658714001,0.2221724436301292,0.0159064494073391,0.003171080723404884,0.0002249116078019142,-0.0006547048687934875,0.001721292734146118,0.002630829811096191,XArbitraryZVertical,-0.09984945462681488,-0.07084278958406424,-0.8620768352124212,-0.4917669972502941,-0.1024795100092888,-0.2203491926193237,-0.9700227975845337,0,0,0,-1,-1,16180.22689541667,walking,2,2021-04-05 21:51:42.456 -0400,2021-04-05 19:23:45.401 -0400,774,1.458092,0,0,572.4493,0,0,2021-04-05 21:51:09.036 -0400,639366707.6002516,0,-2.68,98.19874,1,0.64
2021-04-05 21:51:48.373 -0400,0,0,0,0,0,0,0,0,0,16186.15563691667,-0.1038665771484375,-0.21649169921875,-0.9650421142578125,16186.13549491667,2.116730255812747,-0.1058602724933409,0.2223147207257229,-0.004655239172279835,-0.02992133982479572,0.01225793920457363,0.0020490363240242,0.002211019396781921,0.001957714557647705,XArbitraryZVertical,-0.1001372752262284,-0.07076566966915768,-0.862085671111938,-0.4917041461684228,-0.1030622720718384,-0.220487967133522,-0.9699295163154602,0,0,0,-1,-1,16180.22689541667,walking,2,2021-04-05 21:51:42.456 -0400,2021-04-05 19:23:45.401 -0400,774,1.458092,0,0,572.4493,0,0,2021-04-05 21:51:09.036 -0400,639366707.6002516,0,-2.68,98.19874,1,0.64
2021-04-05 21:51:48.413 -0400,0,0,0,0,0,0,0,0,0,16186.19084291667,-0.1026458740234375,-0.21429443359375,-0.9683685302734375,16186.16567691667,2.117099044707468,-0.1066702993080488,0.2221366571114325,0.01152740325778723,-0.03343863412737846,0.003440095577389002,-1.455098390579224e-05,0.003822609782218933,0.004842579364776611,XArbitraryZVertical,-0.1004305603426799,-0.07050776760709471,-0.86214661677411,-0.4915745498331602,-0.1038520857691765,-0.2203142791986465,-0.9698846936225891,0,0,0,-1,-1,16180.22689541667,walking,2,2021-04-05 21:51:42.456 -0400,2021-04-05 19:23:45.401 -0400,774,1.458092,0,0,572.4493,0,0,2021-04-05 21:51:09.036 -0400,639366707.6002516,0,-2.68,98.19874,1,0.64
2021-04-05 21:51:48.445 -0400,0,0,0,0,0,0,0,0,0,16186.22600991667,-0.1093597412109375,-0.2176666259765625,-0.9641876220703125,16186.19585891667,2.11751153323366,-0.1069958365375936,0.2227098658783264,0.02343631535768509,0.006058766972273588,0.01929054781794548,0.0002724230289459229,0.006395861506462097,0.002546787261962891,XArbitraryZVertical,-0.1006942351489337,-0.07069727226221978,-0.8621964849328745,-0.4914059397173698,-0.1041543111205101,-0.2208733707666397,-0.9697251319885254,0,0,0,-1,-1,16180.22689541667,walking,2,2021-04-05 21:51:42.456 -0400,2021-04-05 19:23:45.401 -0400,774,1.458092,0,0,572.4493,0,0,2021-04-05 21:51:09.036 -0400,639366707.6002516,0,-2.68,98.19874,1,0.64
2021-04-05 21:51:48.531 -0400,0,0,0,0,0,0,0,0,0,16186.261230875,-0.1104278564453125,-0.2223052978515625,-0.9747772216796875,16186.256206875,2.118413359718298,-0.1065928310161922,0.2227617494675195,0.00121387979015708,-0.001977568026632071,0.005288512911647558,-0.006162092089653015,0.00618705153465271,0.005354404449462891,XArbitraryZVertical,-0.1005010351411609,-0.07086413506711695,-0.8624350556242878,-0.491002619992288,-0.1037622764706612,-0.220923975110054,-0.9697556495666504,0,0,0,-1,-1,16180.22689541667,walking,2,2021-04-05 21:51:42.456 -0400,2021-04-05 19:23:45.401 -0400,774,1.458092,0,0,572.4493,0,0,2021-04-05 21:51:09.036 -0400,639366707.6002516,0,-2.68,98.19874,1,0.64
2021-04-05 21:51:48.537 -0400,0,0,0,0,0,0,0,0,0,16186.296428875,-0.1074066162109375,-0.2217254638671875,-0.9753875732421875,16186.286357875,2.118653058644514,-0.1068330467621541,0.2221785946016656,-0.01063928380608559,-0.01951397024095058,0.01533477101475,-0.003046758472919464,-0.001309201121330261,-0.005864620208740234,XArbitraryZVertical,-0.1004560095115492,-0.07056404344692563,-0.8625175696703031,-0.4909100729013674,-0.1040089502930641,-0.2203551828861237,-0.9698585867881775,0,0,0,-1,-1,16180.22689541667,walking,2,2021-04-05 21:51:42.456 -0400,2021-04-05 19:23:45.401 -0400,774,1.458092,0,0,572.4493,0,0,2021-04-05 21:51:09.036 -0400,639366707.6002516,0,-2.68,98.19874,1,0.64
2021-04-05 21:51:48.554 -0400,0,0,0,0,0,0,0,0,0,16186.331634875,-0.1036529541015625,-0.228668212890625,-0.9750823974609375,16186.316539875,2.118888730485905,-0.1078266560105279,0.2218923608905662,-0.01012683659791946,-0.02576607093214989,-0.005174514837563038,-0.002396814525127411,-0.001023843884468079,-0.003006637096405029,XArbitraryZVertical,-0.1008074536506491,-0.07020775057906767,-0.8625429762673603,-0.4908445434087109,-0.1049793362617493,-0.2200759798288345,-0.9698174595832825,0,0,0,-1,-1,16180.22689541667,walking,2,2021-04-05 21:51:42.456 -0400,2021-04-05 19:23:45.401 -0400,774,1.458092,0,0,572.4493,0,0,2021-04-05 21:51:09.036 -0400,639366707.6002516,0,-2.68,98.19874,1,0.64
2021-04-05 21:51:48.585 -0400,0,0,0,0,0,0,0,0,0,16186.366832875,-0.102874755859375,-0.2173004150390625,-0.9707794189453125,16186.346721875,2.118320758278399,-0.108839910095454,0.2213481714778562,-0.0237673707306385,-0.03987168520689011,-0.02237267605960369,0.005175337195396423,-0.007581949234008789,-0.0058785080909729,XArbitraryZVertical,-0.1011335148295044,-0.06969407001863585,-0.862385734068628,-0.4911267949423255,-0.1059749498963356,-0.2195450961589813,-0.9698294997215271,0,0,0,-1,-1,16180.22689541667,walking,2,2021-04-05 21:51:42.456 -0400,2021-04-05 19:23:45.401 -0400,774,1.458092,0,0,572.4493,0,0,2021-04-05 21:51:09.036 -0400,639366707.6002516,0,-2.68,98.19874,1,0.64
2021-04-05 21:51:48.624 -0400,0,0,0,0,0,0,0,0,0,16186.402038875,-0.0980377197265625,-0.2229461669921875,-0.96868896484375,16186.376873875,2.118137813117026,-0.1093124597337324,0.2212143293199806,0.009144618175923824,-0.01564319059252739,0.01237541809678078,0.003561630845069885,0.002114146947860718,-0.0009709000587463379,XArbitraryZVertical,-0.1013114671437292,-0.06951065551478901,-0.8623250941739641,-0.4912225656965933,-0.1064364388585091,-0.2194145172834396,-0.9698085188865662,0,0,0,-1,-1,16180.22689541667,walking,2,2021-04-05 21:51:42.456 -0400,2021-04-05 19:23:45.401 -0400,774,1.458092,0,0,572.4493,0,0,2021-04-05 21:51:09.036 -0400,639366707.6002516,0,-2.68,98.19874,1,0.64
2021-04-05 21:51:48.655 -0400,0,0,0,0,0,0,0,0,0,16186.437236875,-0.097015380859375,-0.2238616943359375,-0.9728546142578125,16186.407054875,2.118899492803869,-0.1103713556072926,0.2217181363144526,0.01789266802370548,-0.02833733148872852,0.02948534674942493,0.008467294275760651,-0.0004766285419464111,-0.0004311800003051758,XArbitraryZVertical,-0.1018626158056445,-0.06950807042099935,-0.8624273833846591,-0.4909293640810106,-0.1074511110782623,-0.2199060320854187,-0.9695852994918823,0,0,0,-1,-1,16180.22689541667,walking,2,2021-04-05 21:51:42.456 -0400,2021-04-05 19:23:45.401 -0400,774,1.458092,0,0,572.4493,0,0,2021-04-05 21:51:09.036 -0400,639366707.6002516,0,-2.68,98.19874,1,0.64
2021-04-05 21:51:48.695 -0400,0,0,0,0,0,0,0,0,0,16186.472443875,-0.1005096435546875,-0.2171173095703125,-0.9723663330078125,16186.467388875,2.120623175599886,-0.1119608736844564,0.2215097514402203,-0.01873468235135078,-0.005490543320775032,0.04489008337259293,0.01146303117275238,-0.0006341487169265747,-0.00733262300491333,XArbitraryZVertical,-0.1024384407926036,-0.06911569507567597,-0.8627818906965586,-0.4902417269558164,-0.1089972704648972,-0.219702735543251,-0.9694587588310242,0,0,0,-1,-1,16180.22689541667,walking,2,2021-04-05 21:51:42.456 -0400,2021-04-05 19:23:45.401 -0400,774,1.458092,0,0,572.4493,0,0,2021-04-05 21:51:09.036 -0400,639366707.6002516,0,-2.68,98.19874,1,0.64
2021-04-05 21:51:48.725 -0400,0,0,0,0,0,0,0,0,0,16186.507610875,-0.10540771484375,-0.22174072265625,-0.962493896484375,16186.497570875,2.122025894120642,-0.112009354648825,0.2212847993882451,0.02392945811152458,-0.002692789770662785,0.04954437538981438,0.006647996604442596,0.002808511257171631,-0.001414179801940918,XArbitraryZVertical,-0.1023570047077683,-0.06907789459335463,-0.8631369150431379,-0.4896387583692439,-0.1090497896075249,-0.219483271241188,-0.9695025682449341,0,0,0,-1,-1,16180.22689541667,walking,2,2021-04-05 21:51:42.456 -0400,2021-04-05 19:23:45.401 -0400,774,1.458092,0,0,572.4493,0,0,2021-04-05 21:51:09.036 -0400,639366707.6002516,0,-2.68,98.19874,1,0.64
2021-04-05 21:51:48.765 -0400,0,0,0,0,0,0,0,0,0,16186.542816875,-0.1103363037109375,-0.21905517578125,-0.97174072265625,16186.527721875,2.123114112377442,-0.1116074452336391,0.2220848109307279,-0.004418050870299339,0.02345471829175949,0.0289698913693428,-0.001451671123504639,-7.316470146179199e-05,0.005321204662322998,XArbitraryZVertical,-0.1023372565196943,-0.06957966592944904,-0.8633743125978751,-0.4891528263301221,-0.1086405366659164,-0.2202637046575546,-0.969371497631073,0,0,0,-1,-1,16180.22689541667,walking,2,2021-04-05 21:51:42.456 -0400,2021-04-05 19:23:45.401 -0400,774,1.458092,0,0,572.4493,0,0,2021-04-05 21:51:09.036 -0400,639366707.6002516,0,-2.68,98.19874,1,0.64
2021-04-05 21:51:48.796 -0400,0,0,0,0,0,0,0,0,0,16186.578014875,-0.116119384765625,-0.221710205078125,-0.985809326171875,16186.557903875,2.123952260137698,-0.1112904659994792,0.2217603763607754,-0.001922192284837365,-0.0006091329269111156,0.03111361712217331,-0.004299238324165344,0.003577619791030884,-0.004094898700714111,XArbitraryZVertical,-0.1020936773717733,-0.06955895701544716,-0.8636154391135797,-0.4887807698296737,-0.1083411872386932,-0.2199472337961197,-0.9694768786430359,0,0,0,-1,-1,16180.22689541667,walking,2,2021-04-05 21:51:42.456 -0400,2021-04-05 19:23:45.401 -0400,774,1.458092,0,0,572.4493,0,0,2021-04-05 21:51:09.036 -0400,639366707.6002516,0,-2.68,98.19874,1,0.64
2021-04-05 21:51:48.836 -0400,0,0,0,0,0,0,0,0,0,16186.613220875,-0.1182098388671875,-0.2216796875,-0.965240478515625,16186.588085875,2.124966363788328,-0.1113784805556923,0.2220830814999071,0.03789259865880013,-0.01202903501689434,0.03147953748703003,-0.007700800895690918,-0.001448139548301697,-0.01641255617141724,XArbitraryZVertical,-0.1021734675038067,-0.06972957191127521,-0.8638387584527628,-0.4883450216710361,-0.1084186211228371,-0.2202620208263397,-0.969396710395813,0,0,0,-1,-1,16180.22689541667,walking,2,2021-04-05 21:51:42.456 -0400,2021-04-05 19:23:45.401 -0400,774,1.458092,0,0,572.4493,0,0,2021-04-05 21:51:09.036 -0400,639366707.6002516,0,-2.68,98.19874,1,0.64
2021-04-05 21:51:48.867 -0400,0,0,0,0,0,0,0,0,0,16186.648418875,-0.122894287109375,-0.2256927490234375,-0.9526519775390625,16186.648418875,2.126669259431213,-0.1119200994946372,0.2236572248422881,0.002923562657088041,0.00312216067686677,0.00100451847538352,-0.01571378856897354,-0.001667708158493042,0.01702678203582764,XArbitraryZVertical,-0.1027233404227147,-0.07036940598285836,-0.8641289600202219,-0.4876240806041519,-0.1089047938585281,-0.2217972278594971,-0.9689921140670776,0,0,0,-1,-1,16180.22689541667,walking,2,2021-04-05 21:51:42.456 -0400,2021-04-05 19:23:45.401 -0400,774,1.458092,0,0,572.4493,0,0,2021-04-05 21:51:09.036 -0400,639366707.6002516,0,-2.68,98.19874,1,0.64
2021-04-05 21:51:48.906 -0400,0,0,0,0,0,0,0,0,0,16186.683624875,-0.1097412109375,-0.215789794921875,-0.9649810791015625,16186.678569875,2.126488262017604,-0.1124021279431351,0.2234096366440965,-0.004416585899889469,-0.02434801682829857,-0.008311368525028229,-0.00701606273651123,-0.0001696199178695679,0.01078790426254272,XArbitraryZVertical,-0.1028789441683865,-0.07013485581759592,-0.8640754130902227,-0.487719793381119,-0.1093780174851418,-0.2215557992458344,-0.9689940214157104,0,0,0,-1,-1,16180.22689541667,walking,2,2021-04-05 21:51:42.456 -0400,2021-04-05 19:23:45.401 -0400,774,1.458092,0,0,572.4493,0,0,2021-04-05 21:51:09.036 -0400,639366707.6002516,0,-2.68,98.19874,1,0.64
2021-04-05 21:51:48.936 -0400,0,0,0,0,0,0,0,0,0,16186.718792875,-0.1112213134765625,-0.2185821533203125,-0.9675750732421875,16186.708751875,2.126432822210858,-0.1135112767861197,0.2236601295087648,-0.001672787126153708,-0.02914443239569664,-0.003462401684373617,0.001193441450595856,0.005216836929321289,0.002691507339477539,XArbitraryZVertical,-0.1034197664851483,-0.0699704837356942,-0.8639890912978054,-0.4877819710164037,-0.1104464158415794,-0.2218000590801239,-0.9688169956207275,0,0,0,-1,-1,16180.22689541667,walking,2,2021-04-05 21:51:42.456 -0400,2021-04-05 19:23:45.401 -0400,774,1.458092,0,0,572.4493,0,0,2021-04-05 21:51:09.036 -0400,639366707.6002516,0,-2.68,98.19874,1,0.64
2021-04-05 21:51:49.004 -0400,0,0,0,0,0,0,0,0,0,16186.754028875,-0.105377197265625,-0.2230682373046875,-0.9752349853515625,16186.738933875,2.126342440343666,-0.1148912640657303,0.2230635840971543,-0.03092430345714092,-0.03306181728839874,-0.001771860057488084,-0.0007046833634376526,0.002239495515823364,-0.002152383327484131,XArbitraryZVertical,-0.103876848484731,-0.06936964603245922,-0.8639328041767582,-0.4878705604005257,-0.111798420548439,-0.2212183326482773,-0.9687948822975159,0,0,0,-1,-1,16180.22689541667,walking,2,2021-04-05 21:51:42.456 -0400,2021-04-05 19:23:45.401 -0400,774,1.458092,0,0,572.4493,0,0,2021-04-05 21:51:09.036 -0400,639366707.6002516,0,-2.68,98.19874,1,0.64
2021-04-05 21:51:49.050 -0400,0,0,0,0,0,0,0,0,0,16186.789196875,-0.1090850830078125,-0.2234039306640625,-0.966949462890625,16186.769084875,2.126420433172286,-0.1157110474546123,0.2226885296175115,0.0007003666833043098,-0.009089989587664604,0.002177157904952765,0.009544230997562408,-0.001651063561439514,-0.006495475769042969,XArbitraryZVertical,-0.1041388850166688,-0.06901056480092725,-0.8639325668273151,-0.4878658515710447,-0.1126021519303322,-0.2208525538444519,-0.968785285949707,0,0,0,-1,-1,16180.22689541667,walking,2,2021-04-05 21:51:42.456 -0400,2021-04-05 19:23:45.401 -0400,774,1.458092,0,0,572.4493,0,0,2021-04-05 21:51:09.036 -0400,639366707.6002516,0,-2.68,98.19874,1,0.64
2021-04-05 21:51:49.055 -0400,0,0,0,0,0,0,0,0,0,16186.824402875,-0.102752685546875,-0.21978759765625,-0.968994140625,16186.799266875,2.126684477784063,-0.115384903478385,0.2227137111477143,0.006744477432221174,0.0134625593200326,0.01208721287548542,0.003200426697731018,-0.002526775002479553,0.001866996288299561,XArbitraryZVertical,-0.1039948742886858,-0.06911479419802417,-0.8640124061811592,-0.4877405809189492,-0.1122855469584465,-0.2208771258592606,-0.9688163995742798,0,0,0,-1,-1,16180.22689541667,walking,2,2021-04-05 21:51:42.456 -0400,2021-04-05 19:23:45.401 -0400,774,1.458092,0,0,572.4493,0,0,2021-04-05 21:51:09.036 -0400,639366707.6002516,0,-2.68,98.19874,1,0.64
2021-04-05 21:51:49.078 -0400,0,0,0,0,0,0,0,0,0,16186.859600875,-0.113616943359375,-0.22235107421875,-0.9664306640625,16186.829418875,2.127257033314383,-0.1155267001481378,0.2224899706443466,-0.008258684538304806,-0.01037598960101604,0.03703407570719719,0.009935274720191956,0.001054435968399048,-0.0006176233291625977,XArbitraryZVertical,-0.1039830714857712,-0.06901264198723496,-0.8641585526981235,-0.4874984407580508,-0.1124286130070686,-0.2206588983535767,-0.9688495397567749,0,0,0,-1,-1,16180.22689541667,walking,2,2021-04-05 21:51:42.456 -0400,2021-04-05 19:23:45.401 -0400,774,1.458092,0,0,572.4493,0,0,2021-04-05 21:51:09.036 -0400,639366707.6002516,0,-2.68,98.19874,1,0.64
2021-04-05 21:51:49.117 -0400,0,0,0,0,0,0,0,0,0,16186.894806875,-0.1175689697265625,-0.2236480712890625,-0.96923828125,16186.889782875,2.129491143376725,-0.1164004182628425,0.2223014510105807,-0.02487688697874546,-0.02146420441567898,0.02285465598106384,-0.002274960279464722,-0.003127247095108032,0.004528343677520752,XArbitraryZVertical,-0.1042388611065481,-0.06883411209754804,-0.8646688637325776,-0.4865632416732701,-0.113279901444912,-0.2204750180244446,-0.9687922596931458,0,0,0,-1,-1,16180.22689541667,walking,2,2021-04-05 21:51:42.456 -0400,2021-04-05 19:23:45.401 -0400,774,1.458092,0,0,572.4493,0,0,2021-04-05 21:51:09.036 -0400,639366707.6002516,0,-2.68,98.19874,1,0.64
2021-04-05 21:51:49.148 -0400,0,0,0,0,0,0,0,0,0,16186.930004875,-0.120697021484375,-0.21533203125,-0.9885711669921875,16186.919933875,2.129759697985838,-0.1169960205396173,0.2210174425226521,-0.03514254093170166,-0.04519737139344215,0.02170032635331154,-0.005433939397335052,0.001830488443374634,-0.007588028907775879,XArbitraryZVertical,-0.1041820784312971,-0.06814404487282008,-0.8647832069538712,-0.4864693607776975,-0.1138898432254791,-0.2192224264144897,-0.9690049886703491,0,0,0,-1,-1,16180.22689541667,walking,2,2021-04-05 21:51:42.456 -0400,2021-04-05 19:23:45.401 -0400,774,1.458092,0,0,572.4493,0,0,2021-04-05 21:51:09.036 -0400,639366707.6002516,0,-2.68,98.19874,1,0.64
2021-04-05 21:51:49.188 -0400,0,0,0,0,0,0,0,0,0,16186.965210875,-0.1268768310546875,-0.2234344482421875,-0.9663543701171875,16186.950115875,2.130589961041547,-0.1182163860861224,0.221110495402054,0.03785034269094467,-0.01315551064908504,0.02919574454426765,-0.007336169481277466,0.002409562468528748,-0.01745259761810303,XArbitraryZVertical,-0.1047036447654603,-0.06793118137014359,-0.864915602080232,-0.4861518473716658,-0.1150698959827423,-0.2193132191896439,-0.968845009803772,0,0,0,-1,-1,16180.22689541667,walking,2,2021-04-05 21:51:42.456 -0400,2021-04-05 19:23:45.401 -0400,774,1.458092,0,0,572.4493,0,0,2021-04-05 21:51:09.036 -0400,639366707.6002516,0,-2.68,98.19874,1,0.64
2021-04-05 21:51:49.219 -0400,0,0,0,0,0,0,0,0,0,16187.000377875,-0.12554931640625,-0.230255126953125,-0.9449615478515625,16186.980266875,2.131579497959743,-0.117795398138344,0.2222739129434701,0.02657899260520935,0.04340197890996933,0.01813258975744247,-0.01253484934568405,-0.003550827503204346,0.0127829909324646,XArbitraryZVertical,-0.1047638256689097,-0.06859216073906529,-0.8651053062471507,-0.4857081044818993,-0.1146319434046745,-0.2204481661319733,-0.9686393141746521,0,0,0,-1,-1,16180.22689541667,walking,2,2021-04-05 21:51:42.456 -0400,2021-04-05 19:23:45.401 -0400,774,1.458092,0,0,572.4493,0,0,2021-04-05 21:51:09.036 -0400,639366707.6002516,0,-2.68,98.19874,1,0.64
2021-04-05 21:51:49.258 -0400,0,0,0,0,0,0,0,0,0,16187.035614875,-0.11163330078125,-0.223907470703125,-0.967864990234375,16187.010448875,2.13160476120755,-0.1171613506583576,0.2220594413341396,-0.03042709268629551,0.005926592275500298,-0.01982356421649456,-0.01152607798576355,-0.01001612842082977,0.02379721403121948,XArbitraryZVertical,-0.1044378247846749,-0.06865399336594134,-0.865158063767099,-0.4856758108727069,-0.11402328312397,-0.2202389687299728,-0.968758761882782,0,0,0,-1,-1,16180.22689541667,walking,2,2021-04-05 21:51:42.456 -0400,2021-04-05 19:23:45.401 -0400,774,1.458092,0,0,572.4493,0,0,2021-04-05 21:51:09.036 -0400,639366707.6002516,0,-2.68,98.19874,1,0.64
2021-04-05 21:51:49.289 -0400,0,0,0,0,0,0,0,0,0,16187.070781875,-0.109771728515625,-0.221435546875,-0.9880828857421875,16187.040630875,2.13069926535007,-0.1177241227122156,0.2205077250996683,-0.05052495747804642,-0.04642855376005173,-0.02183623239398003,0.0009762123227119446,-0.006525129079818726,0.002983450889587402,XArbitraryZVertical,-0.1043439588584735,-0.06779396455408244,-0.8650054408177726,-0.4860884486421657,-0.114608459174633,-0.2187250852584839,-0.9690326452255249,0,0,0,-1,-1,16180.22689541667,walking,2,2021-04-05 21:51:42.456 -0400,2021-04-05 19:23:45.401 -0400,774,1.458092,0,0,572.4493,0,0,2021-04-05 21:51:09.036 -0400,639366707.6002516,0,-2.68,98.19874,1,0.64
2021-04-05 21:51:49.328 -0400,0,0,0,0,0,0,0,0,0,16187.105987875,-0.1036834716796875,-0.2162322998046875,-0.981536865234375,16187.100963875,2.129568572430253,-0.120724137563524,0.2195220966991834,-0.004087186418473721,-0.04075933620333672,-0.002489049453288317,0.01169067621231079,-0.0005747675895690918,-0.009754955768585205,XArbitraryZVertical,-0.1054451212080292,-0.06657576558484063,-0.8646345048917687,-0.4866787773635424,-0.1175409555435181,-0.217763215303421,-0.9688979983329773,0,0,0,-1,-1,16180.22689541667,walking,2,2021-04-05 21:51:42.456 -0400,2021-04-05 19:23:45.401 -0400,774,1.458092,0,0,572.4493,0,0,2021-04-05 21:51:09.036 -0400,639366707.6002516,0,-2.68,98.19874,1,0.64
2021-04-05 21:51:49.359 -0400,0,0,0,0,0,0,0,0,0,16187.141185875,-0.108245849609375,-0.2219390869140625,-0.9776763916015625,16187.131115875,2.129989575092098,-0.1213689950325326,0.2194535186517977,-0.00566337862983346,0.005914095789194107,0.02568459883332253,0.01343116909265518,-0.003174647688865662,-0.01724714040756226,XArbitraryZVertical,-0.1056936348458623,-0.0664112370181429,-0.8647071401886706,-0.4865181296897759,-0.1181675419211388,-0.2176962792873383,-0.968836784362793,0,0,0,-1,-1,16180.22689541667,walking,2,2021-04-05 21:51:42.456 -0400,2021-04-05 19:23:45.401 -0400,774,1.458092,0,0,572.4493,0,0,2021-04-05 21:51:09.036 -0400,639366707.6002516,0,-2.68,98.19874,1,0.64
2021-04-05 21:51:49.399 -0400,0,0,0,0,0,0,0,0,0,16187.176391875,-0.11181640625,-0.218109130859375,-0.9732818603515625,16187.161296875,2.130925088104863,-0.1203515233656894,0.2196204664591256,0.04198561236262321,0.04189625009894371,0.03928233310580254,0.009679131209850311,-0.005193725228309631,-0.006497621536254883,XArbitraryZVertical,-0.105262129766931,-0.06678068361210801,-0.864977905424355,-0.486079799625617,-0.117177352309227,-0.217859223484993,-0.9689204692840576,0,0,0,-1,-1,16180.22689541667,walking,2,2021-04-05 21:51:42.456 -0400,2021-04-05 19:23:45.401 -0400,774,1.458092,0,0,572.4493,0,0,2021-04-05 21:51:09.036 -0400,639366707.6002516,0,-2.68,98.19874,1,0.64
2021-04-05 21:51:49.429 -0400,0,0,0,0,0,0,0,0,0,16187.211589875,-0.1151580810546875,-0.2159423828125,-0.9588165283203125,16187.191478875,2.132237803163485,-0.1187937135965655,0.2209102994710981,0.04217285290360451,0.04539625719189644,0.03942970559000969,0.004229940474033356,-0.0003187209367752075,-0.006123065948486328,XArbitraryZVertical,-0.1048499790405504,-0.06779006360090603,-0.8652980652417118,-0.4854587032410234,-0.11563441157341,-0.2191178947687149,-0.9688220024108887,0,0,0,-1,-1,16180.22689541667,walking,2,2021-04-05 21:51:42.456 -0400,2021-04-05 19:23:45.401 -0400,774,1.458092,0,0,572.4493,0,0,2021-04-05 21:51:09.036 -0400,639366707.6002516,0,-2.68,98.19874,1,0.64
2021-04-05 21:51:49.506 -0400,0,0,0,0,0,0,0,0,0,16187.246779625,-0.12005615234375,-0.2163238525390625,-0.959747314453125,16187.221630875,2.133289226894192,-0.1175099998673717,0.2215853736285563,0.02815564721822739,0.03549542650580406,0.03200409561395645,-0.0007848665118217468,0.003834173083305359,0.01000601053237915,XArbitraryZVertical,-0.1044186003540188,-0.06845073846768447,-0.8655782023854813,-0.4849594593776886,-0.1143732592463493,-0.2197765111923218,-0.9688224792480469,0,0,0,-1,-1,16180.22689541667,walking,2,2021-04-05 21:51:42.456 -0400,2021-04-05 19:23:45.401 -0400,774,1.458092,0,0,572.4493,0,0,2021-04-05 21:51:09.036 -0400,639366707.6002516,0,-2.68,98.19874,1,0.64
2021-04-05 21:51:49.546 -0400,0,0,0,0,0,0,0,0,0,16187.281946625,-0.1167755126953125,-0.2060699462890625,-0.9571380615234375,16187.251795625,2.133808047919314,-0.116937337527773,0.2219199671708652,-0.01647087559103966,-0.0002655237913131714,-0.0001522088423371315,-0.00636841356754303,0.006876632571220398,0.01384347677230835,XArbitraryZVertical,-0.1042321540036349,-0.06876249117150543,-0.8657129649884864,-0.4847148728208934,-0.11380984634161,-0.2201029062271118,-0.9688147306442261,0,0,0,-1,-1,16180.22689541667,walking,2,2021-04-05 21:51:42.456 -0400,2021-04-05 19:23:45.401 -0400,774,1.458092,0,0,572.4493,0,0,2021-04-05 21:51:09.036 -0400,639366707.6002516,0,-2.68,98.19874,1,0.64
2021-04-05 21:51:49.552 -0400,0,0,0,0,0,0,0,0,0,16187.317183625,-0.1255645751953125,-0.22418212890625,-0.97149658203125,16187.312128625,2.134254911303108,-0.116696927096052,0.2206851534481765,-0.01985017023980618,0.0147009901702404,0.02023490518331528,-0.009850412607192993,0.00779290497303009,0.005030512809753418,XArbitraryZVertical,-0.1038205312820791,-0.06830558184142492,-0.8659106598876488,-0.4845147061649845,-0.1136084944009781,-0.218898206949234,-0.9691112637519836,0,0,0,-1,-1,16180.22689541667,walking,2,2021-04-05 21:51:42.456 -0400,2021-04-05 19:23:45.401 -0400,774,1.458092,0,0,572.4493,0,0,2021-04-05 21:51:09.036 -0400,639366707.6002516,0,-2.68,98.19874,1,0.64
2021-04-05 21:51:49.570 -0400,0,0,0,0,0,0,0,0,0,16187.352350625,-0.1240692138671875,-0.2212066650390625,-0.967193603515625,16187.342310625,2.134540153012838,-0.1163138623177593,0.2196252437633079,-0.02362341433763504,0.02771106362342834,0.01438705343753099,-0.01461984217166901,-0.001755818724632263,0.003549098968505859,XArbitraryZVertical,-0.1033941575185559,-0.0679509574687356,-0.8660652458013474,-0.4843792006643232,-0.1132641136646271,-0.2178638875484467,-0.9693846106529236,0,0,0,-1,-1,16180.22689541667,walking,2,2021-04-05 21:51:42.456 -0400,2021-04-05 19:23:45.401 -0400,774,1.458092,0,0,572.4493,0,0,2021-04-05 21:51:09.036 -0400,639366707.6002516,0,-2.68,98.19874,1,0.64
2021-04-05 21:51:49.610 -0400,0,0,0,0,0,0,0,0,0,16187.387556625,-0.1208343505859375,-0.2269744873046875,-0.986358642578125,16187.372461625,2.134727713803361,-0.1159961858406663,0.2194230062668409,-0.004041346721351147,0.006190449930727482,-0.009711658582091331,-0.00978049635887146,-0.004425138235092163,-0.004748344421386719,XArbitraryZVertical,-0.1032023643008594,-0.06794936977471656,-0.8661395938356709,-0.4842874563678505,-0.1129612550139427,-0.2176665067672729,-0.9694643020629883,0,0,0,-1,-1,16180.22689541667,walking,2,2021-04-05 21:51:42.456 -0400,2021-04-05 19:23:45.401 -0400,774,1.458092,0,0,572.4493,0,0,2021-04-05 21:51:09.036 -0400,639366707.6002516,0,-2.68,98.19874,1,0.64
2021-04-05 21:51:49.640 -0400,0,0,0,0,0,0,0,0,0,16187.422754625,-0.111907958984375,-0.2176971435546875,-0.97296142578125,16187.402643625,2.133980346829222,-0.1160379941462064,0.2185982325476942,-0.0393860749900341,0.006446584593504667,-0.03393508866429329,-0.006331764161586761,-0.009212762117385864,-0.01461535692214966,XArbitraryZVertical,-0.1030505768348655,-0.06754101590415247,-0.8660073159451978,-0.4846134932539005,-0.1130225285887718,-0.2168614268302917,-0.9696375727653503,0,0,0,-1,-1,16180.22689541667,walking,2,2021-04-05 21:51:42.456 -0400,2021-04-05 19:23:45.401 -0400,774,1.458092,0,0,572.4493,0,0,2021-04-05 21:51:09.036 -0400,639366707.6002516,0,-2.68,98.19874,1,0.64
2021-04-05 21:51:49.680 -0400,0,0,0,0,0,0,0,0,0,16187.457960625,-0.111968994140625,-0.2176666259765625,-0.980682373046875,16187.432794625,2.133106204530942,-0.1164528692910058,0.2182507331049004,0.003218385390937328,-0.01789333671331406,-0.02760790102183819,0.001525543630123138,-0.0011749267578125,-0.003296017646789551,XArbitraryZVertical,-0.1031773473897635,-0.06724388002688395,-0.8657953909653781,-0.4850061796624456,-0.1134335473179817,-0.2165221869945526,-0.9696654081344604,0,0,0,-1,-1,16180.22689541667,walking,2,2021-04-05 21:51:42.456 -0400,2021-04-05 19:23:45.401 -0400,774,1.458092,0,0,572.4493,0,0,2021-04-05 21:51:09.036 -0400,639366707.6002516,0,-2.68,98.19874,1,0.64
2021-04-05 21:51:49.711 -0400,0,0,0,0,0,0,0,0,0,16187.493158625,-0.108978271484375,-0.215118408203125,-0.9608917236328125,16187.462976625,2.132334469535995,-0.1169212843762835,0.218507504274885,-0.00239812140353024,0.003671959973871708,-0.01614254340529442,0.0007830560207366943,-0.001320987939834595,-0.01414668560028076,XArbitraryZVertical,-0.1034668972379437,-0.06720230644338737,-0.8655681574899436,-0.4853557385936923,-0.1138812527060509,-0.2167728543281555,-0.9695569276809692,0,0,0,-1,-1,16180.22689541667,walking,2,2021-04-05 21:51:42.456 -0400,2021-04-05 19:23:45.401 -0400,774,1.458092,0,0,572.4493,0,0,2021-04-05 21:51:09.036 -0400,639366707.6002516,0,-2.68,98.19874,1,0.64
2021-04-05 21:51:49.750 -0400,0,0,0,0,0,0,0,0,0,16187.528364625,-0.10772705078125,-0.218292236328125,-0.9788055419921875,16187.523309625,2.132295720127491,-0.1163462943292036,0.2197480734888556,-0.01277028955519199,0.004630718380212784,-0.01504632085561752,0.003886871039867401,-0.003039777278900146,-0.001455545425415039,XArbitraryZVertical,-0.1035135071562758,-0.06788055192766401,-0.8655118320384344,-0.4853517321635942,-0.1132924407720566,-0.2179837673902512,-0.9693543910980225,0,0,0,-1,-1,16180.22689541667,walking,2,2021-04-05 21:51:42.456 -0400,2021-04-05 19:23:45.401 -0400,774,1.458092,0,0,572.4493,0,0,2021-04-05 21:51:09.036 -0400,639366707.6002516,0,-2.68,98.19874,1,0.64
2021-04-05 21:51:49.781 -0400,0,0,0,0,0,0,0,0,0,16187.563532625,-0.1092529296875,-0.2155609130859375,-0.9674224853515625,16187.553491625,2.132165177256451,-0.1159585336000139,0.2198834228731616,0.03419263288378716,0.01339899189770222,0.0116454940289259,0.0055217444896698,0.005652517080307007,0.0006036758422851562,XArbitraryZVertical,-0.1033822242265848,-0.06802686673967216,-0.8654919141473584,-0.4853950899798863,-0.1129131466150284,-0.2181158512830734,-0.9693689346313477,0,0,0,-1,-1,16180.22689541667,walking,2,2021-04-05 21:51:42.456 -0400,2021-04-05 19:23:45.401 -0400,774,1.458092,0,0,572.4493,0,0,2021-04-05 21:51:09.036 -0400,639366707.6002516,0,-2.68,98.19874,1,0.64
2021-04-05 21:51:49.821 -0400,0,0,0,0,0,0,0,0,0,16187.598768625,-0.1146240234375,-0.219970703125,-0.9808197021484375,16187.583673625,2.132612740834757,-0.1159260870613134,0.221093002541238,0.02966444008052349,-0.00616493821144104,-0.002099179429933429,0.001721277832984924,0.003597944974899292,-0.0003573298454284668,XArbitraryZVertical,-0.1036396580544192,-0.06858510952060319,-0.865527125999717,-0.4851984623193427,-0.1128510907292366,-0.2192961573600769,-0.969109833240509,0,0,0,-1,-1,16180.22689541667,walking,2,2021-04-05 21:51:42.456 -0400,2021-04-05 19:23:45.401 -0400,774,1.458092,0,0,572.4493,0,0,2021-04-05 21:51:09.036 -0400,639366707.6002516,0,-2.68,98.19874,1,0.64
2021-04-05 21:51:49.851 -0400,0,0,0,0,0,0,0,0,0,16187.633936625,-0.11712646484375,-0.212982177734375,-0.956329345703125,16187.613825625,2.132457976435164,-0.1157633385984333,0.2214281124918421,0.01035165041685104,0.02192487567663193,0.00129054207354784,-0.001038931310176849,0.00195649266242981,-0.009765684604644775,XArbitraryZVertical,-0.1036539666274754,-0.06876261632801291,-0.8654772229278818,-0.4852594562298412,-0.1126848757266998,-0.2196230888366699,-0.9690551161766052,0,0,0,-1,-1,16180.22689541667,walking,2,2021-04-05 21:51:42.456 -0400,2021-04-05 19:23:45.401 -0400,774,1.458092,0,0,572.4493,0,0,2021-04-05 21:51:09.036 -0400,639366707.6002516,0,-2.68,98.19874,1,0.64
2021-04-05 21:51:49.891 -0400,0,0,0,0,0,0,0,0,0,16187.669142625,-0.1158294677734375,-0.2192535400390625,-0.965423583984375,16187.644006625,2.132519001677296,-0.1148436361174408,0.2220463958895892,0.01751265861093998,0.02838902547955513,-0.01035850681364536,-0.005348503589630127,0.007244095206260681,0.01269394159317017,XArbitraryZVertical,-0.1034004178467231,-0.0692583690663649,-0.865501197569575,-0.4852003339267102,-0.1117780059576035,-0.2202262431383133,-0.9690232872962952,0,0,0,-1,-1,16180.22689541667,walking,2,2021-04-05 21:51:42.456 -0400,2021-04-05 19:23:45.401 -0400,774,1.458092,0,0,572.4493,0,0,2021-04-05 21:51:09.036 -0400,639366707.6002516,0,-2.68,98.19874,1,0.64
2021-04-05 21:51:49.922 -0400,0,0,0,0,0,0,0,0,0,16187.704340625,-0.116363525390625,-0.2220306396484375,-0.96343994140625,16187.674158625,2.132221117519172,-0.1143389436598647,0.2219147329367926,-0.01338467001914978,-0.004375784657895565,-0.004992038011550903,-0.004628829658031464,-0.001932799816131592,0.002372503280639648,XArbitraryZVertical,-0.1031611240432243,-0.06930806716638213,-0.865463144212346,-0.4853119349071646,-0.1112922355532646,-0.2200978100299835,-0.9691083431243896,0,0,0,-1,-1,16180.22689541667,walking,2,2021-04-05 21:51:42.456 -0400,2021-04-05 19:23:45.401 -0400,774,1.458092,0,0,572.4493,0,0,2021-04-05 21:51:09.036 -0400,639366707.6002516,0,-2.68,98.19874,1,0.64
2021-04-05 21:51:49.962 -0400,0,0,0,0,0,0,0,0,0,16187.739546625,-0.1097412109375,-0.2220458984375,-0.9686431884765625,16187.734522625,2.132008277317535,-0.1163277401347606,0.2216194959389172,-0.02877694182097912,-0.05069641023874283,-0.009929272346198559,-0.001610785722732544,-0.004265487194061279,-0.001753509044647217,XArbitraryZVertical,-0.1039590055744222,-0.06868570108529004,-0.8653269105872844,-0.4854732236148114,-0.1132269129157066,-0.2198098003864288,-0.9689496159553528,0,0,0,-1,-1,16180.22689541667,walking,2,2021-04-05 21:51:42.456 -0400,2021-04-05 19:23:45.401 -0400,774,1.458092,0,0,572.4493,0,0,2021-04-05 21:51:09.036 -0400,639366707.6002516,0,-2.68,98.19874,1,0.64
2021-04-05 21:51:50.044 -0400,0,0,0,0,0,0,0,0,0,16187.774744625,-0.10699462890625,-0.2208404541015625,-0.977264404296875,16187.764673625,2.131475325748193,-0.1182147861190321,0.2206096965055732,-0.03566232323646545,-0.07550963759422302,-0.01721228659152985,0.005889341235160828,-0.001130819320678711,-0.004877030849456787,XArbitraryZVertical,-0.1045540871721257,-0.06775970329210539,-0.8651620358036702,-0.4857693314700546,-0.1150812804698944,-0.2188245803117752,-0.9689541459083557,0,0,0,-1,-1,16180.22689541667,walking,2,2021-04-05 21:51:42.456 -0400,2021-04-05 19:23:45.401 -0400,774,1.458092,0,0,572.4493,0,0,2021-04-05 21:51:09.036 -0400,639366707.6002516,0,-2.68,98.19874,1,0.64
2021-04-05 21:51:50.049 -0400,0,0,0,0,0,0,0,0,0,16187.809950625,-0.1031646728515625,-0.216156005859375,-0.96954345703125,16187.794855625,2.131073710894276,-0.1198655601710079,0.219572663332272,-0.03539719432592392,-0.03944367542862892,0.01092665735632181,0.01291739195585251,-0.0008763521909713745,-0.008963406085968018,XArbitraryZVertical,-0.1050356413083341,-0.06688577384052767,-0.8650425353351614,-0.4859992587749981,-0.1167077198624611,-0.217812567949295,-0.9689876437187195,0,0,0,-1,-1,16180.22689541667,walking,2,2021-04-05 21:51:42.456 -0400,2021-04-05 19:23:45.401 -0400,774,1.458092,0,0,572.4493,0,0,2021-04-05 21:51:09.036 -0400,639366707.6002516,0,-2.68,98.19874,1,0.64
2021-04-05 21:51:50.062 -0400,0,0,0,0,0,0,0,0,0,16187.845117625,-0.1121368408203125,-0.217559814453125,-0.9705352783203125,16187.825006625,2.131756080724094,-0.1207308704280116,0.2193969775027061,-0.002340019680559635,-0.01168860029429197,0.0302623063325882,0.01212772727012634,0.001790285110473633,0.002508819103240967,XArbitraryZVertical,-0.105345490673892,-0.06663490132584195,-0.8651737266116173,-0.4857330050951164,-0.1175507605075836,-0.2176411002874374,-0.9689242243766785,0,0,0,-1,-1,16180.22689541667,walking,2,2021-04-05 21:51:42.456 -0400,2021-04-05 19:23:45.401 -0400,774,1.458092,0,0,572.4493,0,0,2021-04-05 21:51:09.036 -0400,639366707.6002516,0,-2.68,98.19874,1,0.64
2021-04-05 21:51:50.102 -0400,0,0,0,0,0,0,0,0,0,16187.880354625,-0.1120758056640625,-0.2255706787109375,-0.95269775390625,16187.855188625,2.132732161664918,-0.120555421471293,0.2192047605547652,-0.006136833224445581,0.02658801153302193,0.04002317413687706,0.005248904228210449,-0.0001062899827957153,-0.001548886299133301,XArbitraryZVertical,-0.1051915043924199,-0.06664508432403919,-0.8654319128988104,-0.4853049539391738,-0.1173857897520065,-0.2174534797668457,-0.9689863324165344,0,0,0,-1,-1,16180.22689541667,walking,2,2021-04-05 21:51:42.456 -0400,2021-04-05 19:23:45.401 -0400,774,1.458092,0,0,572.4493,0,0,2021-04-05 21:51:09.036 -0400,639366707.6002516,0,-2.68,98.19874,1,0.64
2021-04-05 21:51:50.133 -0400,0,0,0,0,0,0,0,0,0,16187.915521625,-0.1132659912109375,-0.2247467041015625,-0.960296630859375,16187.915521625,2.134677955147816,-0.1189679107810835,0.2191314134478447,-0.03819243609905243,-0.01167352218180895,0.01139249466359615,0.002964682877063751,-0.01070645451545715,0.01500946283340454,XArbitraryZVertical,-0.1044219189778816,-0.0670999250446046,-0.8659913886309879,-0.4844096714715107,-0.1158492565155029,-0.2173818945884705,-0.969187319278717,0,0,0,-1,-1,16180.22689541667,walking,2,2021-04-05 21:51:42.456 -0400,2021-04-05 19:23:45.401 -0400,774,1.458092,0,0,572.4493,0,0,2021-04-05 21:51:09.036 -0400,639366707.6002516,0,-2.68,98.19874,1,0.64
2021-04-05 21:51:50.173 -0400,0,0,0,0,0,0,0,0,0,16187.950728625,-0.1158294677734375,-0.2133636474609375,-0.9900970458984375,16187.945703625,2.134799668932554,-0.1198626121280802,0.2173300076677514,-0.05413667112588882,-0.0453818291425705,0.0174639355391264,0.004015736281871796,-0.003096252679824829,-0.01037263870239258,XArbitraryZVertical,-0.1043792445916007,-0.06610389648460575,-0.8660856883136075,-0.4843871625427095,-0.1167629808187485,-0.215623214840889,-0.9694705009460449,0,0,0,-1,-1,16180.22689541667,walking,2,2021-04-05 21:51:42.456 -0400,2021-04-05 19:23:45.401 -0400,774,1.458092,0,0,572.4493,0,0,2021-04-05 21:51:09.036 -0400,639366707.6002516,0,-2.68,98.19874,1,0.64
2021-04-05 21:51:50.203 -0400,0,0,0,0,0,0,0,0,0,16187.985925625,-0.1206207275390625,-0.21417236328125,-0.9862823486328125,16187.975855625,2.135304435086419,-0.1209298675143005,0.2168044890720371,0.005544058047235012,-0.01957948505878448,0.03340894728899002,-0.001741424202919006,0.002951860427856445,-0.02703279256820679,XArbitraryZVertical,-0.104700564305031,-0.0656426243892574,-0.866184554914217,-0.4842035432913345,-0.1178112402558327,-0.2151100188493729,-0.9694576859474182,0,0,0,-1,-1,16180.22689541667,walking,2,2021-04-05 21:51:42.456 -0400,2021-04-05 19:23:45.401 -0400,774,1.458092,0,0,572.4493,0,0,2021-04-05 21:51:09.036 -0400,639366710.1738883,0,-2.71,98.19854,1,0.64
2021-04-05 21:51:50.243 -0400,0,0,0,0,0,0,0,0,0,16188.021132625,-0.1246185302734375,-0.2153778076171875,-0.97796630859375,16188.006036625,2.136487106803789,-0.1213140380106544,0.2175605668048192,0.01255267579108477,0.001161008840426803,0.03757309913635254,-0.003799594938755035,0.003293439745903015,-0.01307970285415649,XArbitraryZVertical,-0.1050066654482795,-0.06594153853893311,-0.8664038357201981,-0.4837042258443807,-0.118163950741291,-0.2158483415842056,-0.9692506194114685,0,0,0,-1,-1,16180.22689541667,walking,2,2021-04-05 21:51:42.456 -0400,2021-04-05 19:23:45.401 -0400,774,1.458092,0,0,572.4493,0,0,2021-04-05 21:51:09.036 -0400,639366710.1738883,0,-2.71,98.19854,1,0.64
2021-04-05 21:51:50.274 -0400,0,0,0,0,0,0,0,0,0,16188.056329625,-0.1236572265625,-0.2166900634765625,-0.9675750732421875,16188.036218625,2.137518926474631,-0.1210019820249849,0.2176603125076401,0.007170838303864002,0.0293344259262085,0.02997028827667236,-0.008300825953483582,0.002368494868278503,-0.007616817951202393,XArbitraryZVertical,-0.1048609345202117,-0.06611464149404911,-0.8666634592355107,-0.4832469091364792,-0.11785888671875,-0.2159457355737686,-0.9692660570144653,0,0,0,-1,-1,16180.22689541667,walking,2,2021-04-05 21:51:42.456 -0400,2021-04-05 19:23:45.401 -0400,774,1.458092,0,0,572.4493,0,0,2021-04-05 21:51:09.036 -0400,639366710.1738883,0,-2.71,98.19854,1,0.64
2021-04-05 21:51:50.314 -0400,0,0,0,0,0,0,0,0,0,16188.091536625,-0.125946044921875,-0.2178802490234375,-0.9521942138671875,16188.066370625,2.13865170123707,-0.1201617238185518,0.2182089402005404,0.04718682169914246,0.03222664073109627,0.0341513380408287,-0.006627090275287628,-0.0002086460590362549,0.001671910285949707,XArbitraryZVertical,-0.1045885147774611,-0.06661638136887749,-0.8669469983159771,-0.4827281455268257,-0.1170301958918571,-0.2164813876152039,-0.9692469835281372,0,0,0,-1,-1,16180.22689541667,walking,2,2021-04-05 21:51:42.456 -0400,2021-04-05 19:23:45.401 -0400,774,1.458092,0,0,572.4493,0,0,2021-04-05 21:51:09.036 -0400,639366710.1738883,0,-2.71,98.19854,1,0.64
2021-04-05 21:51:50.344 -0400,0,0,0,0,0,0,0,0,0,16188.126703625,-0.12225341796875,-0.21575927734375,-0.9609222412109375,16188.096552625,2.139825132563688,-0.1197714747636773,0.2188554903912939,0.007367868442088366,0.008865082636475563,0.02515629306435585,-0.009494006633758545,0.0008192658424377441,0.01657778024673462,XArbitraryZVertical,-0.104532378189019,-0.06705421271447304,-0.8672103321245013,-0.4822063076375186,-0.11663518846035,-0.2171125560998917,-0.9691534042358398,0,0,0,-1,-1,16180.22689541667,walking,2,2021-04-05 21:51:42.456 -0400,2021-04-05 19:23:45.401 -0400,774,1.458092,0,0,572.4493,0,0,2021-04-05 21:51:09.036 -0400,639366710.1738883,0,-2.71,98.19854,1,0.64
2021-04-05 21:51:50.384 -0400,0,0,0,0,0,0,0,0,0,16188.161940625,-0.11505126953125,-0.2151031494140625,-0.9656829833984375,16188.156885625,2.140161853636891,-0.121009543307896,0.218096533743144,0.004804519470781088,-0.004264096263796091,0.0001272568479180336,-0.001636788249015808,0.001619473099708557,0.005228102207183838,XArbitraryZVertical,-0.1048793901151092,-0.06644187420238817,-0.8672738350686023,-0.4821015968268857,-0.1178548336029053,-0.2163716405630112,-0.9691715836524963,0,0,0,-1,-1,16180.22689541667,walking,2,2021-04-05 21:51:42.456 -0400,2021-04-05 19:23:45.401 -0400,774,1.458092,0,0,572.4493,0,0,2021-04-05 21:51:09.036 -0400,639366710.1738883,0,-2.71,98.19854,1,0.64
2021-04-05 21:51:50.414 -0400,0,0,0,0,0,0,0,0,0,16188.197107625,-0.1174163818359375,-0.2118072509765625,-0.976837158203125,16188.187067625,2.140187836952282,-0.1210758848988503,0.2180523582870225,-0.02416534721851349,0.01563744060695171,-0.001859195064753294,-0.001022025942802429,0.003941461443901062,0.002315342426300049,XArbitraryZVertical,-0.1048969061036508,-0.06640796259195747,-0.8672793207998758,-0.482092418968896,-0.1179202869534492,-0.2163285166025162,-0.96917325258255,0,0,0,-1,-1,16180.22689541667,walking,2,2021-04-05 21:51:42.456 -0400,2021-04-05 19:23:45.401 -0400,774,1.458092,0,0,572.4493,0,0,2021-04-05 21:51:09.036 -0400,639366710.1738883,0,-2.71,98.19854,1,0.64
2021-04-05 21:51:50.454 -0400,0,0,0,0,0,0,0,0,0,16188.232313625,-0.112579345703125,-0.211395263671875,-0.9721221923828125,16188.217218625,2.140226001804684,-0.1208576510892148,0.2174755608345811,-0.005009517073631287,0.01766721904277802,0.007783479057252407,0.0003073588013648987,0.00627744197845459,-0.008231639862060547,XArbitraryZVertical,-0.1046652893380693,-0.0662105976693996,-0.8673357718588274,-0.4820685900636461,-0.1177238002419472,-0.2157653421163559,-0.969322681427002,0,0,0,-1,-1,16180.22689541667,walking,2,2021-04-05 21:51:42.456 -0400,2021-04-05 19:23:45.401 -0400,774,1.458092,0,0,572.4493,0,0,2021-04-05 21:51:09.036 -0400,639366710.1738883,0,-2.71,98.19854,1,0.64
2021-04-05 21:51:50.539 -0400,0,0,0,0,0,0,0,0,0,16188.26751275,-0.11663818359375,-0.2220916748046875,-0.978607177734375,16188.24740175,2.140920420103745,-0.1204775245419109,0.2176015612949474,0.008540302515029907,0.01511777564883232,0.03213534131646156,0.006008625030517578,0.004477888345718384,-0.0005998611450195312,XArbitraryZVertical,-0.1045070436998805,-0.06639356061538683,-0.8675151346151385,-0.4817547531354034,-0.1173520609736443,-0.2158883661031723,-0.9693403244018555,0,0,0,-1,-1,16180.22689541667,walking,2,2021-04-05 21:51:42.456 -0400,2021-04-05 19:23:45.401 -0400,774,1.458092,0,0,572.4493,0,0,2021-04-05 21:51:09.036 -0400,639366710.1738883,0,-2.71,98.19854,1,0.64
2021-04-05 21:51:50.544 -0400,0,0,0,0,0,0,0,0,0,16188.30271875,-0.1129608154296875,-0.214752197265625,-0.973175048828125,16188.27755275,2.141773684170274,-0.1204345255431271,0.2172778662798788,-0.02163291350007057,0.005947917699813843,0.02119673974812031,0.0006805360317230225,-0.006519332528114319,-0.009192407131195068,XArbitraryZVertical,-0.1043839924010783,-0.06630702053064913,-0.8677429095726147,-0.4813832002087843,-0.1173187643289566,-0.2155722975730896,-0.9694147109985352,0,0,0,-1,-1,16180.22689541667,walking,2,2021-04-05 21:51:42.456 -0400,2021-04-05 19:23:45.401 -0400,774,1.458092,0,0,572.4493,0,0,2021-04-05 21:51:09.036 -0400,639366710.1738883,0,-2.71,98.19854,1,0.64
2021-04-05 21:51:50.556 -0400,0,0,0,0,0,0,0,0,0,16188.33791675,-0.12261962890625,-0.219207763671875,-0.9640960693359375,16188.33791675,2.143531062694376,-0.1195802258959982,0.2170838354634977,0.02203288674354553,0.02463851496577263,0.02248951978981495,-0.001241318881511688,-0.003458708524703979,0.005551576614379883,XArbitraryZVertical,-0.1039093272814671,-0.0665191952560769,-0.8682219547735841,-0.4805919391966301,-0.1164955422282219,-0.2153828144073486,-0.9695560932159424,0,0,0,-1,-1,16180.22689541667,walking,2,2021-04-05 21:51:42.456 -0400,2021-04-05 19:23:45.401 -0400,774,1.458092,0,0,572.4493,0,0,2021-04-05 21:51:09.036 -0400,639366710.1738883,0,-2.71,98.19854,1,0.64
2021-04-05 21:51:50.595 -0400,0,0,0,0,0,0,0,0,0,16188.37312275,-0.1204071044921875,-0.21417236328125,-0.96282958984375,16188.36806875,2.143900573160546,-0.1188640531284194,0.2173168332856584,0.0002934914082288742,0.02224801853299141,0.00353708490729332,-0.005115509033203125,-0.005916714668273926,0.003906428813934326,XArbitraryZVertical,-0.1036407489048482,-0.06681230309165678,-0.8683335173361756,-0.4804076672237729,-0.1157951876521111,-0.2156103402376175,-0.9695894122123718,0,0,0,-1,-1,16180.22689541667,walking,2,2021-04-05 21:51:42.456 -0400,2021-04-05 19:23:45.401 -0400,774,1.458092,0,0,572.4493,0,0,2021-04-05 21:51:09.036 -0400,639366710.1738883,0,-2.71,98.19854,1,0.64
2021-04-05 21:51:50.625 -0400,0,0,0,0,0,0,0,0,0,16188.40829075,-0.125274658203125,-0.2144775390625,-0.967529296875,16188.39824975,2.143838533107412,-0.117925921101895,0.2174179780995219,0.006495726760476828,0.02615688554942608,-0.002325997455045581,-0.004456058144569397,0.00348992645740509,0.005732536315917969,XArbitraryZVertical,-0.103259235943752,-0.06707865199192545,-0.8683609364915462,-0.4804032627797544,-0.1148829683661461,-0.2157091051340103,-0.9696759581565857,0,0,0,-1,-1,16180.22689541667,walking,2,2021-04-05 21:51:42.456 -0400,2021-04-05 19:23:45.401 -0400,774,1.458092,0,0,572.4493,0,0,2021-04-05 21:51:09.036 -0400,639366710.1738883,0,-2.71,98.19854,1,0.64
2021-04-05 21:51:50.665 -0400,0,0,0,0,0,0,0,0,0,16188.44352675,-0.1212921142578125,-0.214691162109375,-0.96954345703125,16188.42840175,2.143639281112932,-0.1174207230994506,0.2173216579930485,-0.0149654895067215,0.004729685373604298,-0.01586237922310829,-0.009215995669364929,0.00191575288772583,0.002515137195587158,XArbitraryZVertical,-0.1030239773216727,-0.06714761636779733,-0.8683450656923987,-0.4804728773740322,-0.1143955066800117,-0.2156150490045547,-0.9697545170783997,0,0,0,-1,-1,16180.22689541667,walking,2,2021-04-05 21:51:42.456 -0400,2021-04-05 19:23:45.401 -0400,774,1.458092,0,0,572.4493,0,0,2021-04-05 21:51:09.036 -0400,639366710.1738883,0,-2.71,98.19854,1,0.64
2021-04-05 21:51:50.696 -0400,0,0,0,0,0,0,0,0,0,16188.47869475,-0.1324310302734375,-0.2170867919921875,-0.949127197265625,16188.45858375,2.143195395874875,-0.1173950251551103,0.2172682984835609,-0.003545965533703566,0.01891409046947956,-0.01161780022084713,-0.008400335907936096,1.731514930725098e-05,0.002788901329040527,XArbitraryZVertical,-0.1030151988186388,-0.06710760876520996,-0.8682429785532781,-0.4806646617138243,-0.1143719330430031,-0.2155629545450211,-0.9697688817977905,0,0,0,-1,-1,16180.22689541667,walking,2,2021-04-05 21:51:42.456 -0400,2021-04-05 19:23:45.401 -0400,774,1.458092,0,0,572.4493,0,0,2021-04-05 21:51:09.036 -0400,639366710.1738883,0,-2.71,98.19854,1,0.64
2021-04-05 21:51:50.736 -0400,0,0,0,0,0,0,0,0,0,16188.51390075,-0.1268310546875,-0.21685791015625,-0.9512939453125,16188.48876575,2.142691689604695,-0.1161426221005564,0.2170396246573299,-0.02325532212853432,0.06843987107276917,-0.0324791893362999,-0.01926807314157486,-0.001747116446495056,0.02083307504653931,XArbitraryZVertical,-0.1024347419058209,-0.06728282308512552,-0.8682002611103951,-0.4808413499087619,-0.1131630092859268,-0.2153396457433701,-0.9699602723121643,0,0,0,-1,-1,16180.22689541667,walking,2,2021-04-05 21:51:42.456 -0400,2021-04-05 19:23:45.401 -0400,774,1.458092,0,0,572.4493,0,0,2021-04-05 21:51:09.036 -0400,639366710.1738883,0,-2.71,98.19854,1,0.64
2021-04-05 21:51:50.767 -0400,0,0,0,0,0,0,0,0,0,16188.54909875,-0.103729248046875,-0.2139434814453125,-1.015914916992188,16188.54909875,2.138966634805109,-0.1141537848439916,0.2131122374010303,-0.04573949053883553,-0.02349941246211529,-0.02880983613431454,-0.002806618809700012,0.001251921057701111,-0.02819037437438965,XArbitraryZVertical,-0.1007711844500957,-0.06585654505571055,-0.8676427803467985,-0.4823940423540283,-0.1113291680812836,-0.2115027457475662,-0.9710161685943604,0,0,0,-1,-1,16180.22689541667,walking,2,2021-04-05 21:51:42.456 -0400,2021-04-05 19:23:45.401 -0400,774,1.458092,0,0,572.4493,0,0,2021-04-05 21:51:09.036 -0400,639366710.1738883,0,-2.71,98.19854,1,0.64
2021-04-05 21:51:50.806 -0400,0,0,0,0,0,0,0,0,0,16188.58430475,-0.109130859375,-0.212371826171875,-0.987518310546875,16188.57928075,2.138774410659336,-0.1152991676156696,0.2137211061095725,0.0526830181479454,0.01657966710627079,0.01675541885197163,0.007766366004943848,0.0006415396928787231,-0.04213374853134155,XArbitraryZVertical,-0.1014179796620222,-0.06583643661952782,-0.8675017876637261,-0.482514798815422,-0.1124264448881149,-0.2120978087186813,-0.9707599282264709,0,0,0,-1,-1,16180.22689541667,walking,2,2021-04-05 21:51:42.456 -0400,2021-04-05 19:23:45.401 -0400,774,1.458092,0,0,572.4493,0,0,2021-04-05 21:51:09.036 -0400,639366710.1738883,0,-2.71,98.19854,1,0.64
2021-04-05 21:51:50.837 -0400,0,0,0,0,0,0,0,0,0,16188.61950275,-0.1114044189453125,-0.214630126953125,-0.9251251220703125,16188.60943175,2.140176785691207,-0.1142999149834028,0.2159734558863979,0.06088991463184357,0.1097744107246399,0.04125135391950607,-0.00244428962469101,0.009555965662002563,0.01757490634918213,XArbitraryZVertical,-0.1014687545032904,-0.06713223742972978,-0.867754003247478,-0.4818716629179388,-0.1114015877246857,-0.2142983675003052,-0.9703947305679321,0,0,0,-1,-1,16180.22689541667,walking,2,2021-04-05 21:51:42.456 -0400,2021-04-05 19:23:45.401 -0400,774,1.458092,0,0,572.4493,0,0,2021-04-05 21:51:09.036 -0400,639366710.1738883,0,-2.71,98.19854,1,0.64
2021-04-05 21:51:50.876 -0400,0,0,0,0,0,0,0,0,0,16188.65470875,-0.0838470458984375,-0.2033843994140625,-0.9470367431640625,16188.63961375,2.140546361820109,-0.1107544724567604,0.2160938153475583,-0.07341048866510391,0.1014731675386429,-0.02545418590307236,0.004502929747104645,-0.0005345940589904785,0.04483938217163086,XArbitraryZVertical,-0.09994609775852038,-0.06805740486658,-0.868014241858055,-0.4815912827854958,-0.1079575642943382,-0.2144159376621246,-0.9707579612731934,0,0,0,-1,-1,16180.22689541667,walking,2,2021-04-05 21:51:42.456 -0400,2021-04-05 19:23:45.401 -0400,774,1.458092,0,0,572.4493,0,0,2021-04-05 21:51:09.036 -0400,639366710.1738883,0,-2.71,98.19854,1,0.64
2021-04-05 21:51:50.907 -0400,0,0,0,0,0,0,0,0,0,16188.68987575,-0.070343017578125,-0.186492919921875,-0.96685791015625,16188.66976475,2.138886093904567,-0.1082492695755442,0.2121091162200927,-0.1392240524291992,0.02605201862752438,-0.0364970825612545,0.02495874464511871,0.01285989582538605,0.02048152685165405,XArbitraryZVertical,-0.09797513213301627,-0.06683835327033763,-0.8679766626168836,-0.4822343785581242,-0.1056167557835579,-0.2105222195386887,-0.9718670248985291,0,0,0,-1,-1,16180.22689541667,walking,2,2021-04-05 21:51:42.456 -0400,2021-04-05 19:23:45.401 -0400,774,1.458092,0,0,572.4493,0,0,2021-04-05 21:51:09.036 -0400,639366710.1738883,0,-2.71,98.19854,1,0.64
2021-04-05 21:51:50.947 -0400,0,0,0,0,0,0,0,0,0,16188.72511275,-0.0896453857421875,-0.2078399658203125,-0.979156494140625,16188.69994675,2.137957258373564,-0.1082528228914621,0.2083496187150327,-0.1275808662176132,-0.02257025614380836,-0.007418061606585979,0.03536189347505569,0.02035260200500488,0.005788683891296387,XArbitraryZVertical,-0.09711917248238461,-0.06515036717547809,-0.8679737077080237,-0.4826435340007507,-0.1057049706578255,-0.2068454921245575,-0.9726465940475464,0,0,0,-1,-1,16180.22689541667,walking,2,2021-04-05 21:51:42.456 -0400,2021-04-05 19:23:45.401 -0400,774,1.458092,0,0,572.4493,0,0,2021-04-05 21:51:09.036 -0400,639366710.1738883,0,-2.71,98.19854,1,0.64
2021-04-05 21:51:51.038 -0400,0,0,0,0,0,0,0,0,0,16188.76027975,-0.1153564453125,-0.2161712646484375,-0.9962005615234375,16188.76027975,2.137686454397356,-0.1087216742330759,0.1991576979489223,-0.1366148144006729,0.05166880041360855,0.04370293021202087,0.000710904598236084,-0.01933455467224121,-0.0235704779624939,XArbitraryZVertical,-0.09515713313082434,-0.06100960178712217,-0.8684142730979835,-0.4827831993766061,-0.1063628047704697,-0.1978437453508377,-0.9744458794593811,0,0,0,-1,-1,16180.22689541667,walking,2,2021-04-05 21:51:42.456 -0400,2021-04-05 19:23:45.401 -0400,774,1.458092,0,0,572.4493,0,0,2021-04-05 21:51:09.036 -0400,639366710.1738883,0,-2.71,98.19854,1,0.64
2021-04-05 21:51:51.043 -0400,0,0,0,0,0,0,0,0,0,16188.79548675,-0.1275634765625,-0.2145538330078125,-1.0020751953125,16188.79046175,2.138210641688743,-0.1050607465542375,0.1959633766394256,-0.06705133616924286,0.1073162108659744,0.01991207897663116,-0.02233794331550598,-0.02707488834857941,-0.02192318439483643,XArbitraryZVertical,-0.09279511271782344,-0.06052217513438653,-0.8688914857377065,-0.4824454399526956,-0.1028604730963707,-0.1947115659713745,-0.9754522442817688,0,0,0,-1,-1,16180.22689541667,walking,2,2021-04-05 21:51:42.456 -0400,2021-04-05 19:23:45.401 -0400,774,1.458092,0,0,572.4493,0,0,2021-04-05 21:51:09.036 -0400,639366710.1738883,0,-2.71,98.19854,1,0.64
2021-04-05 21:51:51.048 -0400,0,0,0,0,0,0,0,0,0,16188.83068375,-0.1210174560546875,-0.211700439453125,-1.01324462890625,16188.82061375,2.138111078205677,-0.1019895173957918,0.195005330999307,-0.02045304328203201,0.06384427845478058,-0.01062257587909698,-0.02894690632820129,-0.01844744384288788,-0.03519022464752197,XArbitraryZVertical,-0.09123686678612275,-0.06083980802617017,-0.8690616086418862,-0.4823964541937214,-0.09988310188055038,-0.1937717646360397,-0.975948691368103,0,0,0,-1,-1,16180.22689541667,walking,2,2021-04-05 21:51:42.456 -0400,2021-04-05 19:23:45.401 -0400,774,1.458092,0,0,572.4493,0,0,2021-04-05 21:51:09.036 -0400,639366710.1738883,0,-2.71,98.19854,1,0.64
2021-04-05 21:51:51.088 -0400,0,0,0,0,0,0,0,0,0,16188.86589075,-0.1054229736328125,-0.2015228271484375,-0.995147705078125,16188.85079575,2.136805433661435,-0.1014095462702988,0.195931463127183,0.02999538369476795,-0.02801940962672234,-0.08488340675830841,-0.01762930303812027,-0.01373949646949768,-0.03196972608566284,XArbitraryZVertical,-0.09124425724067109,-0.06132477209582207,-0.8687221536419956,-0.4829448284972102,-0.09929884970188141,-0.1946802586317062,-0.9758275151252747,0,0,0,-1,-1,16180.22689541667,walking,2,2021-04-05 21:51:42.456 -0400,2021-04-05 19:23:45.401 -0400,774,1.458092,0,0,572.4493,0,0,2021-04-05 21:51:09.036 -0400,639366710.1738883,0,-2.71,98.19854,1,0.64
2021-04-05 21:51:51.118 -0400,0,0,0,0,0,0,0,0,0,16188.90108875,-0.0963134765625,-0.1971282958984375,-0.9797515869140625,16188.88097675,2.13430022639759,-0.1027377854967754,0.1978212951883809,0.03679873794317245,-0.00355213088914752,-0.08557549864053726,-0.004682920873165131,-0.003005549311637878,-0.01582282781600952,XArbitraryZVertical,-0.09234657050583302,-0.06171376000934936,-0.8679511477804264,-0.4840706430176283,-0.1005569845438004,-0.196533590555191,-0.9753270745277405,0,0,0,-1,-1,16180.22689541667,walking,2,2021-04-05 21:51:42.456 -0400,2021-04-05 19:23:45.401 -0400,774,1.458092,0,0,572.4493,0,0,2021-04-05 21:51:09.036 -0400,639366710.1738883,0,-2.71,98.19854,1,0.64
2021-04-05 21:51:51.158 -0400,0,0,0,0,0,0,0,0,0,16188.93629475,-0.099395751953125,-0.1893157958984375,-0.975860595703125,16188.91112875,2.131732104233267,-0.1036207109935311,0.1992290682344516,0.02742457762360573,-0.01416916958987713,-0.08856694400310516,0.005075842142105103,0.0007854551076889038,-0.004789829254150391,XArbitraryZVertical,-0.09314383225326578,-0.06199487014194051,-0.8672094643038317,-0.4852099647243457,-0.1013893708586693,-0.1979137063026428,-0.9749616980552673,0,0,0,-1,-1,16180.22689541667,walking,2,2021-04-05 21:51:42.456 -0400,2021-04-05 19:23:45.401 -0400,774,1.458092,0,0,572.4493,0,0,2021-04-05 21:51:09.036 -0400,639366710.1738883,0,-2.71,98.19854,1,0.64
2021-04-05 21:51:51.189 -0400,0,0,0,0,0,0,0,0,0,16188.97146175,-0.084259033203125,-0.1901397705078125,-0.9811248779296875,16188.94131075,2.129309363691542,-0.1026312187355432,0.2009594402309768,0.06732256710529327,0.04608231037855148,-0.08932171016931534,-0.00213448703289032,0.01209431886672974,0.001025617122650146,XArbitraryZVertical,-0.09320302075866836,-0.06287665517552728,-0.8665701502657776,-0.4862261369289405,-0.1003893688321114,-0.1996095478534698,-0.9747194647789001,0,0,0,-1,-1,16180.22689541667,walking,2,2021-04-05 21:51:42.456 -0400,2021-04-05 19:23:45.401 -0400,774,1.458092,0,0,572.4493,0,0,2021-04-05 21:51:09.036 -0400,639366710.1738883,0,-2.71,98.19854,1,0.64
2021-04-05 21:51:51.228 -0400,0,0,0,0,0,0,0,0,0,16189.00669875,-0.0883636474609375,-0.1884613037109375,-0.9749603271484375,16189.00164375,2.125576621199271,-0.09898892931626084,0.2060162094503795,0.1030150428414345,0.03285408020019531,-0.04057659953832626,0.01345498114824295,0.01838952302932739,-0.002607583999633789,XArbitraryZVertical,-0.09295450474552998,-0.06579207976130004,-0.8655450270084196,-0.4877115476480905,-0.09673750400543213,-0.2045619785785675,-0.9740617275238037,0,0,0,-1,-1,16180.22689541667,walking,2,2021-04-05 21:51:42.456 -0400,2021-04-05 19:23:45.401 -0400,774,1.458092,0,0,572.4493,0,0,2021-04-05 21:51:09.036 -0400,639366710.1738883,0,-2.71,98.19854,1,0.64
2021-04-05 21:51:51.259 -0400,0,0,0,0,0,0,0,0,0,16189.04186575,-0.096466064453125,-0.198760986328125,-0.9576873779296875,16189.03182575,2.124622170282761,-0.09810330761420887,0.2087362764667779,0.08425989747047424,0.02581393159925938,-0.05142063647508621,0.003244839608669281,0.008172899484634399,0.002733945846557617,XArbitraryZVertical,-0.09325447048277193,-0.06714736103161509,-0.8651982211724883,-0.488085010422418,-0.09581996500492096,-0.2072237730026245,-0.9735896587371826,0,0,0,-1,-1,16180.22689541667,walking,2,2021-04-05 21:51:42.456 -0400,2021-04-05 19:23:45.401 -0400,774,1.458092,0,0,572.4493,0,0,2021-04-05 21:51:09.036 -0400,639366710.1738883,0,-2.71,98.19854,1,0.64
2021-04-05 21:51:51.299 -0400,0,0,0,0,0,0,0,0,0,16189.07707175,-0.09149169921875,-0.2083892822265625,-0.9567108154296875,16189.06197675,2.123341910463286,-0.09659738224152226,0.2100916421308906,0.03969760239124298,0.03560889512300491,-0.03461932390928268,-0.0007510408759117126,0.01204688847064972,0.02136504650115967,XArbitraryZVertical,-0.09297131587940888,-0.06804503470028983,-0.8648779706632742,-0.488582009933923,-0.09432652592658997,-0.2085495293140411,-0.9734523892402649,0,0,0,-1,-1,16180.22689541667,walking,2,2021-04-05 21:51:42.456 -0400,2021-04-05 19:23:45.401 -0400,774,1.458092,0,0,572.4493,0,0,2021-04-05 21:51:09.036 -0400,639366710.1738883,0,-2.71,98.19854,1,0.64
2021-04-05 21:51:51.330 -0400,0,0,0,0,0,0,0,0,0,16189.11226975,-0.09503173828125,-0.20745849609375,-0.9653472900390625,16189.09215875,2.12212139103503,-0.09518711668421104,0.2100301785581512,-0.007817087695002556,0.02040019631385803,-0.04324271902441978,0.0002881512045860291,-0.002249687910079956,0.01415508985519409,XArbitraryZVertical,-0.09238839770043492,-0.06830644535943213,-0.8646485019432566,-0.4890618641358503,-0.09295482188463211,-0.2084894180297852,-0.9735972285270691,0,0,0,-1,-1,16180.22689541667,walking,2,2021-04-05 21:51:42.456 -0400,2021-04-05 19:23:45.401 -0400,774,1.458092,0,0,572.4493,0,0,2021-04-05 21:51:09.036 -0400,639366710.1738883,0,-2.71,98.19854,1,0.64
2021-04-05 21:51:51.369 -0400,0,0,0,0,0,0,0,0,0,16189.14747575,-0.094818115234375,-0.2142181396484375,-0.973114013671875,16189.12230975,2.120723577094676,-0.09462236887102224,0.2091353203111251,-0.02392640523612499,-0.008752260357141495,-0.04278653860092163,-0.002609223127365112,0.0001556724309921265,0.00848764181137085,XArbitraryZVertical,-0.09197682984544343,-0.06799120882433035,-0.8643836625072583,-0.4896513529676026,-0.09242255985736847,-0.2076141387224197,-0.9738349318504333,0,0,0,-1,-1,16180.22689541667,walking,2,2021-04-05 21:51:42.456 -0400,2021-04-05 19:23:45.401 -0400,774,1.458092,0,0,572.4493,0,0,2021-04-05 21:51:09.036 -0400,639366710.1738883,0,-2.71,98.19854,1,0.64
2021-04-05 21:51:51.400 -0400,0,0,0,0,0,0,0,0,0,16189.18267375,-0.0868988037109375,-0.2095794677734375,-0.9776153564453125,16189.15249175,2.119349352731497,-0.09473841931849857,0.2085108701797593,-0.01484399288892746,-0.00849364697933197,-0.04742898046970367,-0.003201127052307129,-0.006085693836212158,0.0003812909126281738,XArbitraryZVertical,-0.09192328125773121,-0.06762825862018708,-0.8640772164248858,-0.4902521869317075,-0.09254781901836395,-0.2070032507181168,-0.9739530682563782,0,0,0,-1,-1,16180.22689541667,walking,2,2021-04-05 21:51:42.456 -0400,2021-04-05 19:23:45.401 -0400,774,1.458092,0,0,572.4493,0,0,2021-04-05 21:51:09.036 -0400,639366710.1738883,0,-2.71,98.19854,1,0.64
2021-04-05 21:51:51.440 -0400,0,0,0,0,0,0,0,0,0,16189.21787975,-0.0874176025390625,-0.2091522216796875,-0.982666015625,16189.21282575,2.11666847594525,-0.09538407008104707,0.2085488645194817,0.003780113067477942,-0.001594277564436197,-0.0321887694299221,0.006277039647102356,0.003259345889091492,-0.006537675857543945,XArbitraryZVertical,-0.09230175463291071,-0.06736284920989834,-0.8633873202148747,-0.491431425838428,-0.09317588806152344,-0.2070404291152954,-0.9738852381706238,0,0,0,-1,-1,16180.22689541667,walking,2,2021-04-05 21:51:42.456 -0400,2021-04-05 19:23:45.401 -0400,774,1.458092,0,0,572.4493,0,0,2021-04-05 21:51:09.036 -0400,639366710.1738883,0,-2.71,98.19854,1,0.64
2021-04-05 21:51:51.499 -0400,0,0,0,0,0,0,0,0,0,16189.25306791667,-0.0883026123046875,-0.20452880859375,-0.967315673828125,16189.24300675,2.115783116584635,-0.09486177455374405,0.208803268316618,-0.00526255089789629,0.01876647025346756,-0.02592962607741356,0.003535591065883636,-0.001206755638122559,0.003498673439025879,XArbitraryZVertical,-0.09216760763528645,-0.06756081956098652,-0.8631793358749789,-0.4917948174750128,-0.09266223013401031,-0.2072893083095551,-0.9738813638687134,0,0,0,-1,-1,16180.22689541667,walking,2,2021-04-05 21:51:42.456 -0400,2021-04-05 19:23:45.401 -0400,774,1.458092,0,0,572.4493,0,0,2021-04-05 21:51:09.036 -0400,639366710.1738883,0,-2.71,98.19854,1,0.64
2021-04-05 21:51:51.528 -0400,0,0,0,0,0,0,0,0,0,16189.28830391667,-0.085174560546875,-0.20977783203125,-0.9856719970703125,16189.27317891667,2.114870431000833,-0.09452809143752353,0.2086863092302442,-0.00806032307446003,-0.01185285486280918,-0.02993663400411606,0.004662483930587769,0.003439575433731079,0.001722574234008789,XArbitraryZVertical,-0.09202617081859522,-0.06755012316744223,-0.8629768306244959,-0.4921779693085955,-0.09233953803777695,-0.2071748971939087,-0.9739363193511963,0,0,0,-1,-1,16180.22689541667,walking,2,2021-04-05 21:51:42.456 -0400,2021-04-05 19:23:45.401 -0400,774,1.458092,0,0,572.4493,0,0,2021-04-05 21:51:09.036 -0400,639366710.1738883,0,-2.71,98.19854,1,0.64
2021-04-05 21:51:51.541 -0400,0,0,0,0,0,0,0,0,0,16189.32347191667,-0.0955657958984375,-0.21148681640625,-0.9763946533203125,16189.30336091667,2.114060330588409,-0.0947447812242944,0.2088648738733576,0.01193937193602324,-0.02526320144534111,-0.02222768217325211,0.005541414022445679,-0.001985713839530945,-0.01127374172210693,XArbitraryZVertical,-0.09219020724224085,-0.06753693527916088,-0.8627572846793822,-0.4925339375061567,-0.09254708141088486,-0.2073495835065842,-0.9738794565200806,0,0,0,-1,-1,16180.22689541667,walking,2,2021-04-05 21:51:42.456 -0400,2021-04-05 19:23:45.401 -0400,774,1.458092,0,0,572.4493,0,0,2021-04-05 21:51:09.036 -0400,639366710.1738883,0,-2.71,98.19854,1,0.64
2021-04-05 21:51:51.580 -0400,0,0,0,0,0,0,0,0,0,16189.35867791667,-0.0947113037109375,-0.2191009521484375,-0.977935791015625,16189.33354291667,2.113425896579934,-0.09521617248807764,0.2092840046767793,0.01328675448894501,0.0008175838738679886,-0.01331781223416328,-0.002567961812019348,-0.003727182745933533,-0.002645492553710938,XArbitraryZVertical,-0.09251640202332391,-0.06757332361886234,-0.8625553378255745,-0.4928213643916689,-0.09299787878990173,-0.2077595740556717,-0.9737491011619568,0,0,0,-1,-1,16180.22689541667,walking,2,2021-04-05 21:51:42.456 -0400,2021-04-05 19:23:45.401 -0400,774,1.458092,0,0,572.4493,0,0,2021-04-05 21:51:09.036 -0400,639366710.1738883,0,-2.71,98.19854,1,0.64
2021-04-05 21:51:51.612 -0400,0,0,0,0,0,0,0,0,0,16189.39387591667,-0.089324951171875,-0.2166290283203125,-0.986328125,16189.39387591667,2.111571316668548,-0.09430938039465943,0.2095657784131236,0.01535580866038799,0.007862341590225697,-0.02589172683656216,-0.000267423689365387,-0.00905156135559082,-0.01429289579391479,XArbitraryZVertical,-0.09225647368726782,-0.06783345321622899,-0.8621238030003171,-0.4935888242657864,-0.09210933744907379,-0.2080352008342743,-0.9737747311592102,0,0,0,-1,-1,16180.22689541667,walking,2,2021-04-05 21:51:42.456 -0400,2021-04-05 19:23:45.401 -0400,774,1.458092,0,0,572.4493,0,0,2021-04-05 21:51:09.036 -0400,639366710.1738883,0,-2.71,98.19854,1,0.64
2021-04-05 21:51:51.651 -0400,0,0,0,0,0,0,0,0,0,16189.42908191667,-0.0885009765625,-0.2122802734375,-0.969970703125,16189.42402691667,2.110717730333358,-0.09351746326621663,0.2098606995965809,-0.003090310376137495,0.03142185136675835,-0.03127064555883408,-0.0004339814186096191,0.0009567439556121826,0.001877665519714355,XArbitraryZVertical,-0.09201570625854398,-0.06811746497415014,-0.8619327518836724,-0.4939282289188755,-0.09133242070674896,-0.2083236575126648,-0.9737862348556519,0,0,0,-1,-1,16180.22689541667,walking,2,2021-04-05 21:51:42.456 -0400,2021-04-05 19:23:45.401 -0400,774,1.458092,0,0,572.4493,0,0,2021-04-05 21:51:09.036 -0400,639366710.1738883,0,-2.71,98.19854,1,0.64
2021-04-05 21:51:51.681 -0400,0,0,0,0,0,0,0,0,0,16189.46427991667,-0.07830810546875,-0.205322265625,-0.9720611572265625,16189.45420891667,2.10950680261548,-0.09265971509580787,0.2098705511942766,-0.02827239595353603,0.003670935519039631,-0.04715482145547867,0.002911433577537537,-0.0008341670036315918,0.0107884407043457,XArbitraryZVertical,-0.09168978764706406,-0.06827806994106515,-0.8616723454733991,-0.4944206227959094,-0.09049693495035172,-0.2083332985639572,-0.9738621711730957,0,0,0,-1,-1,16180.22689541667,walking,2,2021-04-05 21:51:42.456 -0400,2021-04-05 19:23:45.401 -0400,774,1.458092,0,0,572.4493,0,0,2021-04-05 21:51:09.036 -0400,639366710.1738883,0,-2.71,98.19854,1,0.64
2021-04-05 21:51:51.721 -0400,0,0,0,0,0,0,0,0,0,16189.49948591667,-0.0731658935546875,-0.2046966552734375,-0.9839630126953125,16189.48439091667,2.108506650429,-0.09293917528007647,0.2093696303354058,-0.01903656497597694,-0.02331411652266979,-0.009544378146529198,0.01364552974700928,0.003787592053413391,0.002230465412139893,XArbitraryZVertical,-0.09172245682859954,-0.06794609437782904,-0.8614406797364538,-0.4948639686293847,-0.09077876061201096,-0.2078433334827423,-0.9739406108856201,0,0,0,-1,-1,16180.22689541667,walking,2,2021-04-05 21:51:42.456 -0400,2021-04-05 19:23:45.401 -0400,774,1.458092,0,0,572.4493,0,0,2021-04-05 21:51:09.036 -0400,639366710.1738883,0,-2.71,98.19854,1,0.64
2021-04-05 21:51:51.752 -0400,0,0,0,0,0,0,0,0,0,16189.53465291667,-0.08648681640625,-0.20892333984375,-0.9807281494140625,16189.51454191667,2.108796666356544,-0.09373683242753625,0.209204514908311,0.009844740852713585,-0.01341832336038351,0.02611603029072285,0.01543267071247101,0.005975931882858276,-0.008321404457092285,XArbitraryZVertical,-0.09201604796149297,-0.06769055408018547,-0.8614851670330714,-0.4947670020634682,-0.09155881404876709,-0.2076818197965622,-0.9739020466804504,0,0,0,-1,-1,16180.22689541667,walking,2,2021-04-05 21:51:42.456 -0400,2021-04-05 19:23:45.401 -0400,774,1.458092,0,0,572.4493,0,0,2021-04-05 21:51:09.036 -0400,639366710.1738883,0,-2.71,98.19854,1,0.64
2021-04-05 21:51:51.792 -0400,0,0,0,0,0,0,0,0,0,16189.56988991667,-0.0904388427734375,-0.211090087890625,-0.9700469970703125,16189.54472391667,2.110035577704949,-0.09379210541682495,0.2102177370625612,0.05380940064787865,0.0141329588368535,0.04315593093633652,0.005106016993522644,-0.0002504587173461914,-0.00704115629196167,XArbitraryZVertical,-0.09224397497696664,-0.06817291200589211,-0.8617312190779052,-0.494229543784902,-0.09159289300441742,-0.2086728513240814,-0.9736869931221008,0,0,0,-1,-1,16180.22689541667,walking,2,2021-04-05 21:51:42.456 -0400,2021-04-05 19:23:45.401 -0400,774,1.458092,0,0,572.4493,0,0,2021-04-05 21:51:09.036 -0400,639366710.1738883,0,-2.71,98.19854,1,0.64
2021-04-05 21:51:51.822 -0400,0,0,0,0,0,0,0,0,0,16189.60505791667,-0.091949462890625,-0.2136077880859375,-0.9720001220703125,16189.57490591667,2.111384008566194,-0.09323215661911287,0.2113559920157596,0.02945879846811295,0.01207503117620945,0.040915597230196,0.00141056627035141,-0.002097606658935547,0.003606617450714111,XArbitraryZVertical,-0.09223271232256583,-0.06886666796015781,-0.8620249707413583,-0.4936227762492091,-0.09102549403905869,-0.2097859084606171,-0.9735010266304016,0,0,0,-1,-1,16180.22689541667,walking,2,2021-04-05 21:51:42.456 -0400,2021-04-05 19:23:45.401 -0400,774,1.458092,0,0,572.4493,0,0,2021-04-05 21:51:09.036 -0400,639366710.1738883,0,-2.71,98.19854,1,0.64
2021-04-05 21:51:51.862 -0400,0,0,0,0,0,0,0,0,0,16189.64026391667,-0.08782958984375,-0.20281982421875,-0.980194091796875,16189.63523891667,2.112396657369251,-0.09264013181926821,0.2114205043109715,0.0116738211363554,-0.02183768153190613,0.01450248342007399,0.002541951835155487,0.001886993646621704,-0.002838134765625,XArbitraryZVertical,-0.09195821645919619,-0.06908731279922166,-0.8622983629306569,-0.4931654627028768,-0.09044788777828217,-0.2098489850759506,-0.973541259765625,0,0,0,-1,-1,16180.22689541667,walking,2,2021-04-05 21:51:42.456 -0400,2021-04-05 19:23:45.401 -0400,774,1.458092,0,0,572.4493,0,0,2021-04-05 21:51:09.036 -0400,639366710.1738883,0,-2.71,98.19854,1,0.64
2021-04-05 21:51:51.892 -0400,0,0,0,0,0,0,0,0,0,16189.67546191667,-0.095001220703125,-0.2093658447265625,-0.982330322265625,16189.66539091667,2.112867966486021,-0.09371403710296153,0.2117801398793681,0.01064545288681984,-0.03299929574131966,0.01059228088706732,-0.002004392445087433,0.005610808730125427,-0.01106762886047363,XArbitraryZVertical,-0.09249209764949905,-0.06900021972923548,-0.8623444163019602,-0.4929972093318767,-0.09148625284433365,-0.2102006077766418,-0.9733683466911316,0,0,0,-1,-1,16180.22689541667,walking,2,2021-04-05 21:51:42.456 -0400,2021-04-05 19:23:45.401 -0400,774,1.458092,0,0,572.4493,0,0,2021-04-05 21:51:09.036 -0400,639366710.1738883,0,-2.71,98.19854,1,0.64
2021-04-05 21:51:51.932 -0400,0,0,0,0,0,0,0,0,0,16189.71066791667,-0.0964202880859375,-0.209991455078125,-0.9703521728515625,16189.69557291667,2.113399217241005,-0.09451411628487032,0.2121584773652915,0.01185727026313543,-0.003897850401699543,0.02538462728261948,0.0002164095640182495,0.00103682279586792,-0.006886899471282959,XArbitraryZVertical,-0.0929103563985358,-0.06899171954951534,-0.8624165249970865,-0.4927936759892081,-0.09225748479366302,-0.2105704694986343,-0.973215639591217,0,0,0,-1,-1,16180.22689541667,walking,2,2021-04-05 21:51:42.456 -0400,2021-04-05 19:23:45.401 -0400,774,1.458092,0,0,572.4493,0,0,2021-04-05 21:51:09.036 -0400,639366710.1738883,0,-2.71,98.19854,1,0.64
2021-04-05 21:51:52.003 -0400,0,0,0,0,0,0,0,0,0,16189.74586591667,-0.099456787109375,-0.21771240234375,-0.982269287109375,16189.72575491667,2.114197967010422,-0.09423982077423132,0.2123627715087658,0.002952568233013153,0.01761235855519772,0.01804385520517826,-0.005410410463809967,-0.001174360513687134,0.001564145088195801,XArbitraryZVertical,-0.09281390078379474,-0.0691849650268396,-0.8626142554295166,-0.4924386564608746,-0.09198648482561111,-0.2107701748609543,-0.9731980562210083,0,0,0,-1,-1,16180.22689541667,walking,2,2021-04-05 21:51:42.456 -0400,2021-04-05 19:23:45.401 -0400,774,1.458092,0,0,572.4493,0,0,2021-04-05 21:51:09.036 -0400,639366710.1738883,0,-2.71,98.19854,1,0.64
2021-04-05 21:51:52.045 -0400,0,0,0,0,0,0,0,0,0,16189.78107191667,-0.09197998046875,-0.2090301513671875,-0.991790771484375,16189.75590591667,2.114335923783924,-0.09376954989626184,0.2120312970582424,-0.005031832028180361,0.0140892006456852,-0.00349449273198843,-0.007921487092971802,-0.007266223430633545,-0.008958578109741211,XArbitraryZVertical,-0.09252611714291932,-0.06916335728467994,-0.8626890762131529,-0.4923647340649704,-0.09153534471988678,-0.2104461342096329,-0.9733107089996338,0,0,0,-1,-1,16180.22689541667,walking,2,2021-04-05 21:51:42.456 -0400,2021-04-05 19:23:45.401 -0400,774,1.458092,0,0,572.4493,0,0,2021-04-05 21:51:09.036 -0400,639366710.1738883,0,-2.71,98.19854,1,0.64
2021-04-05 21:51:52.050 -0400,0,0,0,0,0,0,0,0,0,16189.81623891667,-0.0935821533203125,-0.21197509765625,-0.9859466552734375,16189.78608791667,2.114540047541623,-0.09367252453299536,0.2124574216230293,0.04938605800271034,0.01318692229688168,0.01405778527259827,-0.0009137243032455444,-0.0007461607456207275,-0.01968973875045776,XArbitraryZVertical,-0.0925802509458606,-0.06938155002858336,-0.8627192577193156,-0.4922707742601708,-0.09143251180648804,-0.2108626961708069,-0.9732301831245422,0,0,0,-1,-1,16180.22689541667,walking,2,2021-04-05 21:51:42.456 -0400,2021-04-05 19:23:45.401 -0400,774,1.458092,0,0,572.4493,0,0,2021-04-05 21:51:09.036 -0400,639366710.1738883,0,-2.71,98.19854,1,0.64
2021-04-05 21:51:52.073 -0400,0,0,0,0,0,0,0,0,0,16189.85144491667,-0.092987060546875,-0.204803466796875,-0.9759674072265625,16189.84642091667,2.115544866670574,-0.0932917696792869,0.2157137027869304,0.05288829281926155,0.03431412577629089,-0.0009259572252631187,-0.005270250141620636,0.003854855895042419,-0.01089859008789062,XArbitraryZVertical,-0.09316769795810709,-0.07093454847381597,-0.8627956586262752,-0.4918045940229829,-0.09099749475717545,-0.2140446454286575,-0.9725761413574219,0,0,0,-1,-1,16180.22689541667,walking,2,2021-04-05 21:51:42.456 -0400,2021-04-05 19:23:45.401 -0400,774,1.458092,0,0,572.4493,0,0,2021-04-05 21:51:09.036 -0400,639366710.1738883,0,-2.71,98.19854,1,0.64
2021-04-05 21:51:52.104 -0400,0,0,0,0,0,0,0,0,0,16189.88664291667,-0.089630126953125,-0.19183349609375,-0.9463653564453125,16189.87660291667,2.115964004487264,-0.0921060295517931,0.2173023912387525,0.0669092983007431,0.04643173515796661,0.0141189880669117,3.005564212799072e-05,0.019475057721138,0.008155882358551025,XArbitraryZVertical,-0.09302482405455015,-0.07193485896272354,-0.8628612176962371,-0.4915711674652516,-0.08981282263994217,-0.2155962437391281,-0.9723435044288635,0,0,0,-1,-1,16180.22689541667,walking,2,2021-04-05 21:51:42.456 -0400,2021-04-05 19:23:45.401 -0400,774,1.458092,0,0,572.4493,0,0,2021-04-05 21:51:09.036 -0400,639366710.1738883,0,-2.71,98.19854,1,0.64
2021-04-05 21:51:52.144 -0400,0,0,0,0,0,0,0,0,0,16189.92184891667,-0.0829620361328125,-0.1932220458984375,-0.97369384765625,16189.90675391667,2.116495516458954,-0.0918565984167198,0.218728300311356,0.0325123593211174,-0.03454833477735519,0.005725155118852854,0.0002017244696617126,0.02687916159629822,0.03085088729858398,XArbitraryZVertical,-0.09324216265120985,-0.07263960425786971,-0.8629199255587798,-0.4913231957916389,-0.08954199403524399,-0.2169883996248245,-0.9720587730407715,0,0,0,-1,-1,16180.22689541667,walking,2,2021-04-05 21:51:42.456 -0400,2021-04-05 19:23:45.401 -0400,774,1.458092,0,0,572.4493,0,0,2021-04-05 21:51:09.036 -0400,639366710.1738883,0,-2.71,98.19854,1,0.64
2021-04-05 21:51:52.174 -0400,0,0,0,0,0,0,0,0,0,16189.95704691667,-0.0888519287109375,-0.1923675537109375,-0.9646453857421875,16189.93693591667,2.117578023097731,-0.09638782223643701,0.2215799827822071,0.2102971971035004,-0.1999052166938782,0.06577975302934647,0.01272419840097427,0.02802933752536774,-0.008392691612243652,XArbitraryZVertical,-0.09584518259503573,-0.07281551900072869,-0.8628025183826386,-0.4910023765806334,-0.09388574212789536,-0.2197712510824203,-0.9710232019424438,0,0,0,-1,-1,16180.22689541667,walking,2,2021-04-05 21:51:42.456 -0400,2021-04-05 19:23:45.401 -0400,774,1.458092,0,0,572.4493,0,0,2021-04-05 21:51:09.036 -0400,639366710.1738883,0,-2.71,98.19854,1,0.64
2021-04-05 21:51:52.214 -0400,0,0,0,0,0,0,0,0,0,16189.99225291667,-0.1145172119140625,-0.2388763427734375,-0.9080657958984375,16189.96708791667,2.121211632733991,-0.1020960373906043,0.2282353490405794,0.2458879351615906,-0.1372713595628738,0.1184576600790024,0.01042374223470688,0.0338914692401886,0.004349589347839355,XArbitraryZVertical,-0.09977346656004885,-0.07448343643072605,-0.8630086536204795,-0.4896055590475549,-0.09927572309970856,-0.2262589931488037,-0.9689949750900269,0,0,0,-1,-1,16180.22689541667,walking,2,2021-04-05 21:51:42.456 -0400,2021-04-05 19:23:45.401 -0400,774,1.458092,0,0,572.4493,0,0,2021-04-05 21:51:09.036 -0400,639366710.1738883,0,-2.71,98.19854,1,0.64
2021-04-05 21:51:52.245 -0400,0,0,0,0,0,0,0,0,0,16190.02745091667,-0.1062164306640625,-0.2693939208984375,-0.9871368408203125,16190.02745091667,2.125814520957623,-0.1040277501027295,0.2256483563264375,-0.2002183049917221,-0.03451285138726234,0.00460887374356389,-0.003833748400211334,-0.04370242357254028,0.01633161306381226,XArbitraryZVertical,-0.09981884002634267,-0.07311672870157641,-0.8641968317608285,-0.4877027147864669,-0.1012077927589417,-0.2237383276224136,-0.969380259513855,0,0,0,-1,-1,16180.22689541667,walking,2,2021-04-05 21:51:42.456 -0400,2021-04-05 19:23:45.401 -0400,774,1.458092,0,0,572.4493,0,0,2021-04-05 21:51:09.036 -0400,639366710.1738883,0,-2.71,98.19854,1,0.64
2021-04-05 21:51:52.284 -0400,0,0,0,0,0,0,0,0,0,16190.06265691667,-0.0970916748046875,-0.25518798828125,-1.035873413085938,16190.05760291667,2.125132955123314,-0.1038107610910905,0.218669334168912,-0.1888545900583267,0.00147554837167263,0.005754882004112005,0.003454729914665222,-0.03976772725582123,-0.04373198747634888,XArbitraryZVertical,-0.09808217037695087,-0.07010028250547252,-0.8644664698962786,-0.4880201416158027,-0.1011567935347557,-0.2169308364391327,-0.9709316492080688,0,0,0,-1,-1,16180.22689541667,walking,2,2021-04-05 21:51:42.456 -0400,2021-04-05 19:23:45.401 -0400,774,1.458092,0,0,572.4493,0,0,2021-04-05 21:51:09.036 -0400,639366710.1738883,0,-2.71,98.19854,1,0.64
2021-04-05 21:51:52.315 -0400,0,0,0,0,0,0,0,0,0,16190.09782491667,-0.1001434326171875,-0.2399749755859375,-1.012420654296875,16190.08778491667,2.125162609682758,-0.1042998828593461,0.2159397996470531,-0.04606413096189499,0.01712458953261375,0.01386292651295662,0.0007865279912948608,-0.03294211626052856,-0.05700552463531494,XArbitraryZVertical,-0.09763997707953231,-0.06879499745403202,-0.8646132131871971,-0.4880345698046848,-0.1016929522156715,-0.2142654955387115,-0.9714673757553101,0,0,0,-1,-1,16180.22689541667,walking,2,2021-04-05 21:51:42.456 -0400,2021-04-05 19:23:45.401 -0400,774,1.458092,0,0,572.4493,0,0,2021-04-05 21:51:09.036 -0400,639366710.1738883,0,-2.71,98.19854,1,0.64
2021-04-05 21:51:52.355 -0400,0,0,0,0,0,0,0,0,0,16190.13303091667,-0.10040283203125,-0.2227783203125,-0.968536376953125,16190.11793591667,2.125751621598874,-0.1038540557855726,0.2185206633850867,0.1072532832622528,0.05112994089722633,0.01759376563131809,0.0005856603384017944,-0.0183674693107605,-0.0304749608039856,XArbitraryZVertical,-0.09804367782280905,-0.07005538667812285,-0.8646241850468857,-0.4877547582967685,-0.1012021750211716,-0.2167856991291046,-0.9709593653678894,0,0,0,-1,-1,16180.22689541667,walking,2,2021-04-05 21:51:42.456 -0400,2021-04-05 19:23:45.401 -0400,774,1.458092,0,0,572.4493,0,0,2021-04-05 21:51:09.036 -0400,639366710.1738883,0,-2.71,98.19854,1,0.64
2021-04-05 21:51:52.386 -0400,0,0,0,0,0,0,0,0,0,16190.16822891667,-0.0886077880859375,-0.2170867919921875,-0.945159912109375,16190.14811791667,2.126856688077498,-0.1013338151984073,0.2233330347399768,0.1455215364694595,0.114668682217598,0.03086795657873154,-0.000335693359375,0.002075031399726868,0.00797349214553833,XArbitraryZVertical,-0.09806376475662974,-0.07281762529315954,-0.8647259462390857,-0.4871652916820632,-0.09864812344312668,-0.2214810997247696,-0.9701621532440186,0,0,0,-1,-1,16180.22689541667,walking,2,2021-04-05 21:51:42.456 -0400,2021-04-05 19:23:45.401 -0400,774,1.458092,0,0,572.4493,0,0,2021-04-05 21:51:09.036 -0400,639366710.1738883,0,-2.71,98.19854,1,0.64
2021-04-05 21:51:52.426 -0400,0,0,0,0,0,0,0,0,0,16190.20343491667,-0.087921142578125,-0.2164154052734375,-0.95941162109375,16190.17829991667,2.128061945754277,-0.09844163292491716,0.2270754177385113,0.08851740509271622,0.0752999484539032,0.024260139092803,0.007151857018470764,0.008042231202125549,0.02445191144943237,XArbitraryZVertical,-0.09766116225865377,-0.07520907093172152,-0.8649322080223095,-0.486516274201908,-0.09575969725847244,-0.2251289784908295,-0.9696117639541626,0,0,0,-1,-1,16180.22689541667,walking,2,2021-04-05 21:51:42.456 -0400,2021-04-05 19:23:45.401 -0400,774,1.458092,0,0,572.4493,0,0,2021-04-05 21:51:09.036 -0400,639366710.1738883,0,-2.71,98.19854,1,0.64
2021-04-05 21:51:52.456 -0400,0,0,0,0,0,0,0,0,0,16190.23863291667,-0.0797882080078125,-0.2157745361328125,-0.9742431640625,16190.20845091667,2.128892714661698,-0.09719320054130369,0.2289791308722931,0.05611173808574677,0.02639040350914001,0.01780612021684647,0.006052121520042419,0.0104459822177887,0.01326286792755127,XArbitraryZVertical,-0.09754336181158087,-0.07638166289823714,-0.8650781566279309,-0.4860976744435925,-0.0945073664188385,-0.2269834131002426,-0.9693022966384888,0,0,0,-1,-1,16180.22689541667,walking,2,2021-04-05 21:51:42.456 -0400,2021-04-05 19:23:45.401 -0400,774,1.458092,0,0,572.4493,0,0,2021-04-05 21:51:09.036 -0400,639366710.1738883,0,-2.71,98.19854,1,0.64
2021-04-05 21:51:52.535 -0400,0,0,0,0,0,0,0,0,0,16190.273824125,-0.089202880859375,-0.2263336181640625,-0.9700164794921875,16190.268769125,2.132339937003353,-0.09752888247491555,0.232271549635017,0.08791656047105789,0.0357578881084919,0.09417049586772919,0.007067136466503143,0.007013648748397827,-0.007537484169006348,XArbitraryZVertical,-0.09833850126812763,-0.07790254639600998,-0.8656942168180715,-0.4845970601175918,-0.09475945681333542,-0.2301886677742004,-0.9685214757919312,0,0,0,-1,-1,16180.22689541667,walking,2,2021-04-05 21:51:42.456 -0400,2021-04-05 19:23:45.401 -0400,774,1.458092,0,0,572.4493,0,0,2021-04-05 21:51:09.036 -0400,639366710.1738883,0,-2.71,98.19854,1,0.64
2021-04-05 21:51:52.542 -0400,0,0,0,0,0,0,0,0,0,16190.309022125,-0.0942840576171875,-0.237518310546875,-0.962249755859375,16190.298951125,2.135678283263263,-0.09637202506954073,0.2345026317393259,0.08926163613796234,0.07074405997991562,0.1005110815167427,0.0007242634892463684,-0.00114595890045166,0.006538450717926025,XArbitraryZVertical,-0.0982350617581043,-0.07931868708738214,-0.8664191165049872,-0.4830902718964368,-0.09358929842710495,-0.2323592603206635,-0.968116819858551,0,0,0,-1,-1,16180.22689541667,walking,2,2021-04-05 21:51:42.456 -0400,2021-04-05 19:23:45.401 -0400,774,1.458092,0,0,572.4493,0,0,2021-04-05 21:51:09.036 -0400,639366710.1738883,0,-2.71,98.19854,1,0.64
2021-04-05 21:51:52.566 -0400,0,0,0,0,0,0,0,0,0,16190.344228125,-0.0877838134765625,-0.23724365234375,-0.9723358154296875,16190.329133125,2.138681615905743,-0.09466684729658385,0.2352666824468707,0.01216382160782814,0.05083084851503372,0.087203748524189,-0.001004531979560852,-0.006216481328010559,0.002994835376739502,XArbitraryZVertical,-0.09755680138057692,-0.0802101779474912,-0.8671790931488551,-0.4817150093891344,-0.09192154556512833,-0.2331023365259171,-0.968097984790802,0,0,0,-1,-1,16180.22689541667,walking,2,2021-04-05 21:51:42.456 -0400,2021-04-05 19:23:45.401 -0400,774,1.458092,0,0,572.4493,0,0,2021-04-05 21:51:09.036 -0400,639366710.1738883,0,-2.71,98.19854,1,0.64
2021-04-05 21:51:52.597 -0400,0,0,0,0,0,0,0,0,0,16190.379396125,-0.0838165283203125,-0.2323760986328125,-0.9826812744140625,16190.359284125,2.141069273769417,-0.09457476780692273,0.2345947860620913,-0.002642621286213398,-0.008668534457683563,0.07167921960353851,0.004688918590545654,-0.003314614295959473,-0.004317820072174072,XArbitraryZVertical,-0.09726280318418769,-0.08005538503203959,-0.8678001723093357,-0.4806808622089721,-0.09184717386960983,-0.2324488908052444,-0.9682621359825134,0,0,0,-1,-1,16180.22689541667,walking,2,2021-04-05 21:51:42.456 -0400,2021-04-05 19:23:45.401 -0400,774,1.458092,0,0,572.4493,0,0,2021-04-05 21:51:09.036 -0400,639366710.1738883,0,-2.71,98.19854,1,0.64
2021-04-05 21:51:52.636 -0400,0,0,0,0,0,0,0,0,0,16190.414602125,-0.0829010009765625,-0.2291717529296875,-0.96405029296875,16190.389466125,2.143456004087289,-0.09576604507975871,0.2342649545492742,-0.0157545730471611,-0.01667489856481552,0.0801430270075798,0.009191319346427917,-0.0002479851245880127,-0.01445293426513672,XArbitraryZVertical,-0.09760693312811651,-0.07974162174159825,-0.868335767375447,-0.4796947963544148,-0.0930078998208046,-0.2321280837059021,-0.9682283401489258,0,0,0,-1,-1,16180.22689541667,walking,2,2021-04-05 21:51:42.456 -0400,2021-04-05 19:23:45.401 -0400,774,1.458092,0,0,572.4493,0,0,2021-04-05 21:51:09.036 -0400,639366710.1738883,0,-2.71,98.19854,1,0.64
2021-04-05 21:51:52.668 -0400,0,0,0,0,0,0,0,0,0,16190.449800125,-0.08203125,-0.226348876953125,-0.966339111328125,16190.419618125,2.146211057500415,-0.09618924231787901,0.23428663284575,0.01332514919340611,0.02239521034061909,0.09534282237291336,0.00989050418138504,0.001436308026313782,-0.0001693964004516602,XArbitraryZVertical,-0.09768594882071677,-0.07978422092350106,-0.8689737480644675,-0.4785149792835233,-0.09341716021299362,-0.2321491688489914,-0.9681838750839233,0,0,0,-1,-1,16180.22689541667,walking,2,2021-04-05 21:51:42.456 -0400,2021-04-05 19:23:45.401 -0400,774,1.458092,0,0,572.4493,0,0,2021-04-05 21:51:09.036 -0400,639366710.1738883,0,-2.71,98.19854,1,0.64
2021-04-05 21:51:52.707 -0400,0,0,0,0,0,0,0,0,0,16190.485006125,-0.08935546875,-0.222900390625,-0.97265625,16190.479981125,2.152997362185552,-0.09619785365492815,0.2345607308810272,0.02827285975217819,0.02682310529053211,0.1272219717502594,0.009648576378822327,0.00731813907623291,-0.006138741970062256,XArbitraryZVertical,-0.0974822336148314,-0.08023321724234464,-0.8705748100147573,-0.4755622044677164,-0.09341938048601151,-0.2324157655239105,-0.9681196808815002,0,0,0,-1,-1,16180.22689541667,walking,2,2021-04-05 21:51:42.456 -0400,2021-04-05 19:23:45.401 -0400,774,1.458092,0,0,572.4493,0,0,2021-04-05 21:51:09.036 -0400,639366710.1738883,0,-2.71,98.19854,1,0.64
2021-04-05 21:51:52.737 -0400,0,0,0,0,0,0,0,0,0,16190.520204125,-0.1047515869140625,-0.234588623046875,-0.953521728515625,16190.510133125,2.157214539913013,-0.09568897374910697,0.2358437323890318,0.08081505447626114,0.0534970797598362,0.1297481507062912,-0.007153779268264771,0.008077546954154968,0.00142359733581543,XArbitraryZVertical,-0.09738860468879849,-0.08112162358902185,-0.871519733178478,-0.4736963487115374,-0.09289814531803131,-0.2336634397506714,-0.9678694605827332,0,0,0,-1,-1,16180.22689541667,walking,2,2021-04-05 21:51:42.456 -0400,2021-04-05 19:23:45.401 -0400,774,1.458092,0,0,572.4493,0,0,2021-04-05 21:51:09.036 -0400,639366710.1738883,0,-2.71,98.19854,1,0.64
2021-04-05 21:51:52.777 -0400,0,0,0,0,0,0,0,0,0,16190.555410125,-0.1089935302734375,-0.2364349365234375,-0.9445953369140625,16190.540315125,2.16051692188162,-0.09462155115130173,0.2370955119159199,0.02132792584598064,0.04539738595485687,0.07824709266424179,-0.01382990181446075,-0.001844435930252075,0.01865577697753906,XArbitraryZVertical,-0.0970783446620123,-0.08208361685546618,-0.872273597304523,-0.4722044086960911,-0.09183726459741592,-0.2348803877830505,-0.9676761627197266,0,0,0,-1,-1,16180.22689541667,walking,2,2021-04-05 21:51:42.456 -0400,2021-04-05 19:23:45.401 -0400,774,1.458092,0,0,572.4493,0,0,2021-04-05 21:51:09.036 -0400,639366712.7488158,0,-2.68,98.19821,1,0.64
2021-04-05 21:51:52.807 -0400,0,0,0,0,0,0,0,0,0,16190.590608125,-0.107513427734375,-0.2444915771484375,-0.9584197998046875,16190.570497125,2.16248493429014,-0.09339392924511777,0.2365996148902497,-0.005667106714099646,0.04160565882921219,0.05687860399484634,-0.01630406081676483,-0.003242015838623047,0.02114194631576538,XArbitraryZVertical,-0.096347369220109,-0.08225070729119878,-0.8728284262033595,-0.4712989327669775,-0.09066010266542435,-0.2343983352184296,-0.9679040312767029,0,0,0,-1,-1,16180.22689541667,walking,2,2021-04-05 21:51:42.456 -0400,2021-04-05 19:23:45.401 -0400,774,1.458092,0,0,572.4493,0,0,2021-04-05 21:51:09.036 -0400,639366712.7488158,0,-2.68,98.19821,1,0.64
2021-04-05 21:51:52.848 -0400,0,0,0,0,0,0,0,0,0,16190.625814125,-0.1048431396484375,-0.24127197265625,-0.96502685546875,16190.600648125,2.164062967558738,-0.0925349662622602,0.2361480523405633,-0.0153584498912096,0.05739465728402138,0.0400397852063179,-0.01767502725124359,-0.0105322003364563,0.009667038917541504,XArbitraryZVertical,-0.09580333863783919,-0.08233050110515493,-0.8732696063286015,-0.4705779667533696,-0.08983844518661499,-0.2339593321084976,-0.968086838722229,0,0,0,-1,-1,16180.22689541667,walking,2,2021-04-05 21:51:42.456 -0400,2021-04-05 19:23:45.401 -0400,774,1.458092,0,0,572.4493,0,0,2021-04-05 21:51:09.036 -0400,639366712.7488158,0,-2.68,98.19821,1,0.64
2021-04-05 21:51:52.879 -0400,0,0,0,0,0,0,0,0,0,16190.660981125,-0.104644775390625,-0.24102783203125,-0.9763641357421875,16190.660981125,2.165724948797014,-0.09249201331907184,0.2334762593446928,-0.02866175025701523,0.009421642869710922,0.03126927837729454,-0.01472950726747513,-0.008629351854324341,-0.006845772266387939,XArbitraryZVertical,-0.09510122287432832,-0.08124616302021771,-0.8738292180014905,-0.4698694256715078,-0.08985427767038345,-0.2313608527183533,-0.9687096476554871,0,0,0,-1,-1,16180.22689541667,walking,2,2021-04-05 21:51:42.456 -0400,2021-04-05 19:23:45.401 -0400,774,1.458092,0,0,572.4493,0,0,2021-04-05 21:51:09.036 -0400,639366712.7488158,0,-2.68,98.19821,1,0.64
2021-04-05 21:51:52.918 -0400,0,0,0,0,0,0,0,0,0,16190.696187125,-0.1041412353515625,-0.2347259521484375,-0.9612579345703125,16190.691163125,2.166746471055973,-0.0928436251258184,0.2334705101108046,-0.01028511673212051,0.01172574795782566,0.02302409894764423,-0.01675388962030411,-0.00532376766204834,0.004186511039733887,XArbitraryZVertical,-0.0952120567835139,-0.08120967445278951,-0.8740527153076848,-0.469437343238451,-0.09019500762224197,-0.2313552647829056,-0.9686793088912964,0,0,0,-1,-1,16180.22689541667,walking,2,2021-04-05 21:51:42.456 -0400,2021-04-05 19:23:45.401 -0400,774,1.458092,0,0,572.4493,0,0,2021-04-05 21:51:09.036 -0400,639366712.7488158,0,-2.68,98.19821,1,0.64
2021-04-05 21:51:52.948 -0400,0,0,0,0,0,0,0,0,0,16190.731385125,-0.097747802734375,-0.2335205078125,-0.968902587890625,16190.721345125,2.16687182795294,-0.09311868283220283,0.2330521235160391,-0.03263312205672264,0.001061345217749476,-0.01521529816091061,-0.01145832240581512,-0.00832483172416687,0.00239640474319458,XArbitraryZVertical,-0.09523098524813689,-0.08096717605741757,-0.8740950439538898,-0.4693965535649471,-0.09047044068574905,-0.2309482097625732,-0.9687507748603821,0,0,0,-1,-1,16180.22689541667,walking,2,2021-04-05 21:51:42.456 -0400,2021-04-05 19:23:45.401 -0400,774,1.458092,0,0,572.4493,0,0,2021-04-05 21:51:09.036 -0400,639366712.7488158,0,-2.68,98.19821,1,0.64
2021-04-05 21:51:53.041 -0400,0,0,0,0,0,0,0,0,0,16190.766591125,-0.090606689453125,-0.2330780029296875,-0.9752349853515625,16190.751496125,2.166390610461218,-0.0934338176197558,0.2325577676804199,-0.004173961468040943,-0.006189069710671902,-0.0178530253469944,-0.002872131764888763,-0.0003067106008529663,0.0008181929588317871,XArbitraryZVertical,-0.09527446184163352,-0.08065297509740629,-0.873997776847418,-0.4696229395057208,-0.09078636020421982,-0.2304671853780746,-0.9688357710838318,0,0,0,-1,-1,16180.22689541667,walking,2,2021-04-05 21:51:42.456 -0400,2021-04-05 19:23:45.401 -0400,774,1.458092,0,0,572.4493,0,0,2021-04-05 21:51:09.036 -0400,639366712.7488158,0,-2.68,98.19821,1,0.64
2021-04-05 21:51:53.046 -0400,0,0,0,0,0,0,0,0,0,16190.801789125,-0.0825042724609375,-0.2245025634765625,-0.987884521484375,16190.781678125,2.165720099057094,-0.09394052911575744,0.2327365573797741,-0.01530501991510391,-0.006942068226635456,-0.03693108260631561,0.0006971806287765503,-0.002574130892753601,-0.003953456878662109,XArbitraryZVertical,-0.09556403441357313,-0.08058054120201966,-0.8738050034188269,-0.4699351640290054,-0.09127340465784073,-0.2306411564350128,-0.9687485694885254,0,0,0,-1,-1,16180.22689541667,walking,2,2021-04-05 21:51:42.456 -0400,2021-04-05 19:23:45.401 -0400,774,1.458092,0,0,572.4493,0,0,2021-04-05 21:51:09.036 -0400,639366712.7488158,0,-2.68,98.19821,1,0.64
2021-04-05 21:51:53.059 -0400,0,0,0,0,0,0,0,0,0,16190.836996125,-0.08282470703125,-0.2272796630859375,-0.9779815673828125,16190.811830125,2.164410908036924,-0.09413782678066397,0.2325166084080837,0.003872990608215332,0.001475978875532746,-0.03071434423327446,0.008964985609054565,0.005924597382545471,-0.01910346746444702,XArbitraryZVertical,-0.09565224685679913,-0.08037492965418694,-0.8735014228545668,-0.470516418519716,-0.09146930277347565,-0.2304271310567856,-0.968781054019928,0,0,0,-1,-1,16180.22689541667,walking,2,2021-04-05 21:51:42.456 -0400,2021-04-05 19:23:45.401 -0400,774,1.458092,0,0,572.4493,0,0,2021-04-05 21:51:09.036 -0400,639366712.7488158,0,-2.68,98.19821,1,0.64
2021-04-05 21:51:53.089 -0400,0,0,0,0,0,0,0,0,0,16190.872193125,-0.0902099609375,-0.2331695556640625,-0.956298828125,16190.842012125,2.163940584184461,-0.0935271435716917,0.2335761129118465,0.05764232575893402,0.03471634536981583,-0.004387966822832823,0.008747220039367676,0.008786529302597046,-0.01038026809692383,XArbitraryZVertical,-0.09564872315632589,-0.08096152959376524,-0.8733540999383606,-0.4706901918820323,-0.09085481613874435,-0.231457993388176,-0.9685931205749512,0,0,0,-1,-1,16180.22689541667,walking,2,2021-04-05 21:51:42.456 -0400,2021-04-05 19:23:45.401 -0400,774,1.458092,0,0,572.4493,0,0,2021-04-05 21:51:09.036 -0400,639366712.7488158,0,-2.68,98.19821,1,0.64
2021-04-05 21:51:53.129 -0400,0,0,0,0,0,0,0,0,0,16190.907400125,-0.0840911865234375,-0.2244415283203125,-0.9570159912109375,16190.902345125,2.162397387316298,-0.09031497504689491,0.2347003689448957,-0.02031231857836246,0.03072121553122997,-0.04580949246883392,0.00127844512462616,-0.001518204808235168,0.0100630521774292,XArbitraryZVertical,-0.09456860666874453,-0.08213824637251131,-0.8730734779201065,-0.4712247216308191,-0.08771953731775284,-0.2325515747070312,-0.9686201810836792,0,0,0,-1,-1,16180.22689541667,walking,2,2021-04-05 21:51:42.456 -0400,2021-04-05 19:23:45.401 -0400,774,1.458092,0,0,572.4493,0,0,2021-04-05 21:51:09.036 -0400,639366712.7488158,0,-2.68,98.19821,1,0.64
2021-04-05 21:51:53.159 -0400,0,0,0,0,0,0,0,0,0,16190.942567125,-0.0778045654296875,-0.2256622314453125,-0.9691619873046875,16190.932527125,2.161045889433094,-0.08944677228828385,0.2340899563886317,-0.01433460973203182,-0.00888406578451395,-0.03433562815189362,0.00464630126953125,0.007058605551719666,0.006175458431243896,XArbitraryZVertical,-0.09410404129608155,-0.08201123856299798,-0.8728336794250813,-0.4717837582327576,-0.08689121156930923,-0.2319578528404236,-0.9688372015953064,0,0,0,-1,-1,16180.22689541667,walking,2,2021-04-05 21:51:42.456 -0400,2021-04-05 19:23:45.401 -0400,774,1.458092,0,0,572.4493,0,0,2021-04-05 21:51:09.036 -0400,639366712.7488158,0,-2.68,98.19821,1,0.64
2021-04-05 21:51:53.199 -0400,0,0,0,0,0,0,0,0,0,16190.977773125,-0.08258056640625,-0.231658935546875,-0.978302001953125,16190.962678125,2.160511132550248,-0.0901005006360797,0.2336149713221533,-0.02490720339119434,-0.02510257437825203,-0.001578714465722442,0.01023337990045547,0.005131706595420837,-0.001523435115814209,XArbitraryZVertical,-0.09430131078034214,-0.08162334589167171,-0.8727061245663353,-0.4720475987429867,-0.08753445744514465,-0.2314957976341248,-0.9688897728919983,0,0,0,-1,-1,16180.22689541667,walking,2,2021-04-05 21:51:42.456 -0400,2021-04-05 19:23:45.401 -0400,774,1.458092,0,0,572.4493,0,0,2021-04-05 21:51:09.036 -0400,639366712.7488158,0,-2.68,98.19821,1,0.64
2021-04-05 21:51:53.230 -0400,0,0,0,0,0,0,0,0,0,16191.012971125,-0.0872344970703125,-0.235382080078125,-0.985626220703125,16190.992860125,2.16051749430199,-0.09053940107054018,0.2330459460484596,-0.01308589708060026,-0.001515120267868042,-0.000822210218757391,0.002766475081443787,-0.002608790993690491,-0.01070821285247803,XArbitraryZVertical,-0.09436090152807516,-0.08127035350909907,-0.8727220941574697,-0.4720669739135994,-0.08797159045934677,-0.2309421896934509,-0.9689822793006897,0,0,0,-1,-1,16180.22689541667,walking,2,2021-04-05 21:51:42.456 -0400,2021-04-05 19:23:45.401 -0400,774,1.458092,0,0,572.4493,0,0,2021-04-05 21:51:09.036 -0400,639366712.7488158,0,-2.68,98.19821,1,0.64
2021-04-05 21:51:53.270 -0400,0,0,0,0,0,0,0,0,0,16191.048177125,-0.088958740234375,-0.2357330322265625,-0.9684600830078125,16191.023042125,2.160306519627661,-0.08984188583781025,0.2322617680593856,-0.0247987899929285,0.03057568334043026,-0.0002190708182752132,7.735937833786011e-05,-0.005202904343605042,-0.0164027214050293,XArbitraryZVertical,-0.09388360368949486,-0.08108094999740471,-0.8727534898188722,-0.4721366589597403,-0.08731190860271454,-0.2301791459321976,-0.9692234992980957,0,0,0,-1,-1,16180.22689541667,walking,2,2021-04-05 21:51:42.456 -0400,2021-04-05 19:23:45.401 -0400,774,1.458092,0,0,572.4493,0,0,2021-04-05 21:51:09.036 -0400,639366712.7488158,0,-2.68,98.19821,1,0.64
2021-04-05 21:51:53.300 -0400,0,0,0,0,0,0,0,0,0,16191.083375125,-0.0893096923828125,-0.239013671875,-0.9526824951171875,16191.053193125,2.160269946589354,-0.0885099579212693,0.2318208856312353,0.007780891377478838,0.02663785219192505,-0.003956201486289501,-0.002410128712654114,-0.006303340196609497,-0.002087175846099854,XArbitraryZVertical,-0.09320176877791309,-0.0812001740970236,-0.8728342620558919,-0.4721020472049134,-0.08602985739707947,-0.2297500818967819,-0.9694399237632751,0,0,0,-1,-1,16180.22689541667,walking,2,2021-04-05 21:51:42.456 -0400,2021-04-05 19:23:45.401 -0400,774,1.458092,0,0,572.4493,0,0,2021-04-05 21:51:09.036 -0400,639366712.7488158,0,-2.68,98.19821,1,0.64
2021-04-05 21:51:53.340 -0400,0,0,0,0,0,0,0,0,0,16191.118581125,-0.0859527587890625,-0.2417449951171875,-0.9500274658203125,16191.113526125,2.159173118933527,-0.08771237156720926,0.2313769490805812,-0.03354295715689659,0.005898095667362213,-0.03273775056004524,-0.003021851181983948,-0.008490204811096191,0.01837682723999023,XArbitraryZVertical,-0.09279539349467197,-0.08114274881619717,-0.8726394901317924,-0.4725518090123151,-0.08526554703712463,-0.2293179929256439,-0.9696097373962402,0,0,0,-1,-1,16180.22689541667,walking,2,2021-04-05 21:51:42.456 -0400,2021-04-05 19:23:45.401 -0400,774,1.458092,0,0,572.4493,0,0,2021-04-05 21:51:09.036 -0400,639366712.7488158,0,-2.68,98.19821,1,0.64
2021-04-05 21:51:53.371 -0400,0,0,0,0,0,0,0,0,0,16191.153779125,-0.074249267578125,-0.217498779296875,-0.96746826171875,16191.143708125,2.157452257219837,-0.08760805519477265,0.2302107086459551,-0.05530634522438049,-0.02485606819391251,-0.05710888281464577,0.002530820667743683,-0.00828273594379425,0.01465368270874023,XArbitraryZVertical,-0.09254887286690146,-0.08057614398959942,-0.8723085110007819,-0.4733075796340305,-0.08518774062395096,-0.2281826734542847,-0.9698843955993652,0,0,0,-1,-1,16180.22689541667,walking,2,2021-04-05 21:51:42.456 -0400,2021-04-05 19:23:45.401 -0400,774,1.458092,0,0,572.4493,0,0,2021-04-05 21:51:09.036 -0400,639366712.7488158,0,-2.68,98.19821,1,0.64
2021-04-05 21:51:53.411 -0400,0,0,0,0,0,0,0,0,0,16191.188985125,-0.0800628662109375,-0.20654296875,-0.9961395263671875,16191.173890125,2.155998112780495,-0.08866790765025119,0.2291472146075202,-0.03437652811408043,-0.05481013655662537,-0.01518738456070423,0.01522260904312134,0.01306633651256561,-0.01177680492401123,XArbitraryZVertical,-0.0928222111983476,-0.07979144574804395,-0.8719796938699411,-0.4739925404159798,-0.08623706549406052,-0.2271471172571182,-0.9700347185134888,0,0,0,-1,-1,16180.22689541667,walking,2,2021-04-05 21:51:42.456 -0400,2021-04-05 19:23:45.401 -0400,774,1.458092,0,0,572.4493,0,0,2021-04-05 21:51:09.036 -0400,639366712.7488158,0,-2.68,98.19821,1,0.64
2021-04-05 21:51:53.441 -0400,0,0,0,0,0,0,0,0,0,16191.224153125,-0.088287353515625,-0.2119903564453125,-0.9325103759765625,16191.204042125,2.156764666289557,-0.08959150686515623,0.2294687742909118,0.0316438116133213,0.02330892160534859,0.04936744272708893,0.004423730075359344,0.02042904496192932,-0.02055090665817261,XArbitraryZVertical,-0.09326908735618013,-0.07974928473043723,-0.8720987335288244,-0.4736926073200028,-0.08712641149759293,-0.2274602502584457,-0.9698818325996399,0,0,0,-1,-1,16180.22689541667,walking,2,2021-04-05 21:51:42.456 -0400,2021-04-05 19:23:45.401 -0400,774,1.458092,0,0,572.4493,0,0,2021-04-05 21:51:09.036 -0400,639366712.7488158,0,-2.68,98.19821,1,0.64
2021-04-05 21:51:53.505 -0400,0,0,0,0,0,0,0,0,0,16191.259365125,-0.083892822265625,-0.216522216796875,-0.9907379150390625,16191.234223125,2.157719370971402,-0.08886147514383562,0.2296895598338025,-0.06127122417092323,-0.002199798356741667,0.007294372655451298,-0.001873522996902466,0.01568493247032166,0.03738480806350708,XArbitraryZVertical,-0.09296384202484753,-0.08006337435605207,-0.8723453013008227,-0.4732454502149749,-0.08641388267278671,-0.2276752442121506,-0.9698951840400696,0,0,0,-1,-1,16180.22689541667,walking,2,2021-04-05 21:51:42.456 -0400,2021-04-05 19:23:45.401 -0400,774,1.458092,0,0,572.4493,0,0,2021-04-05 21:51:09.036 -0400,639366712.7488158,0,-2.68,98.19821,1,0.64
2021-04-05 21:51:53.546 -0400,0,0,0,0,0,0,0,0,0,16191.294563125,-0.09686279296875,-0.2402191162109375,-0.997406005859375,16191.264381125,2.157286123828261,-0.08918007061458234,0.2261742302107582,-0.1118006184697151,-0.03479750454425812,0.007826471701264381,0.0005966871976852417,0.01148232817649841,-0.01113748550415039,XArbitraryZVertical,-0.09230365056638645,-0.0784261339705333,-0.8724406761424389,-0.4734728340310486,-0.08679363131523132,-0.2242508381605148,-0.9706587791442871,0,0,0,-1,-1,16180.22689541667,walking,2,2021-04-05 21:51:42.456 -0400,2021-04-05 19:23:45.401 -0400,774,1.458092,0,0,572.4493,0,0,2021-04-05 21:51:09.036 -0400,639366712.7488158,0,-2.68,98.19821,1,0.64
2021-04-05 21:51:53.551 -0400,0,0,0,0,0,0,0,0,0,16191.329769125,-0.1001434326171875,-0.26702880859375,-0.9432220458984375,16191.324745125,2.160636270733986,-0.08955261492985538,0.2247605828566756,0.002052631694823503,0.05871312692761421,0.04244868084788322,-0.01512673497200012,-0.03756400942802429,-0.001013219356536865,XArbitraryZVertical,-0.09200744483575826,-0.07787211708357743,-0.8733002664273402,-0.4720351286876666,-0.08718350529670715,-0.2228729724884033,-0.9709411263465881,0,0,0,-1,-1,16180.22689541667,walking,2,2021-04-05 21:51:42.456 -0400,2021-04-05 19:23:45.401 -0400,774,1.458092,0,0,572.4493,0,0,2021-04-05 21:51:09.036 -0400,639366712.7488158,0,-2.68,98.19821,1,0.64
2021-04-05 21:51:53.582 -0400,0,0,0,0,0,0,0,0,0,16191.364967125,-0.0494232177734375,-0.2146148681640625,-0.9400177001953125,16191.354896125,2.160025972935577,-0.08796214765566115,0.2218084999974125,-0.1848026365041733,0.003790040267631412,-0.06365306675434113,0.0007355883717536926,-0.03302702307701111,0.04777956008911133,XArbitraryZVertical,-0.09065250313723422,-0.07692373046582225,-0.8734044037189028,-0.4722601303485588,-0.08569657057523727,-0.2199941724538803,-0.9717297554016113,0,0,0,-1,-1,16180.22689541667,walking,2,2021-04-05 21:51:42.456 -0400,2021-04-05 19:23:45.401 -0400,774,1.458092,0,0,572.4493,0,0,2021-04-05 21:51:09.036 -0400,639366712.7488158,0,-2.68,98.19821,1,0.64
2021-04-05 21:51:53.622 -0400,0,0,0,0,0,0,0,0,0,16191.400173125,-0.020477294921875,-0.16424560546875,-0.9983367919921875,16191.385078125,2.157727735319416,-0.08945729507226931,0.2152356952145485,-0.2295734882354736,-0.1102836132049561,0.007112178485840559,0.05678953975439072,0.01916548609733582,0.009839177131652832,XArbitraryZVertical,-0.08986599843757578,-0.07358157285282324,-0.8731775938712999,-0.4733610655805435,-0.0872766524553299,-0.2135776877403259,-0.9730197191238403,0,0,0,-1,-1,16180.22689541667,walking,2,2021-04-05 21:51:42.456 -0400,2021-04-05 19:23:45.401 -0400,774,1.458092,0,0,572.4493,0,0,2021-04-05 21:51:09.036 -0400,639366712.7488158,0,-2.68,98.19821,1,0.64
2021-04-05 21:51:53.653 -0400,0,0,0,0,0,0,0,0,0,16191.435371125,-0.0398101806640625,-0.1793060302734375,-0.9254913330078125,16191.415260125,2.161483352018184,-0.09345160858002195,0.2120523448658991,-0.04447765275835991,-0.05920641869306564,0.2412870526313782,0.06736066937446594,0.04649579524993896,-0.01639550924301147,XArbitraryZVertical,-0.09073604844235748,-0.07140939487927135,-0.8740683669321258,-0.4718815248912572,-0.09122546762228012,-0.2104667127132416,-0.973335325717926,0,0,0,-1,-1,16180.22689541667,walking,2,2021-04-05 21:51:42.456 -0400,2021-04-05 19:23:45.401 -0400,774,1.458092,0,0,572.4493,0,0,2021-04-05 21:51:09.036 -0400,639366712.7488158,0,-2.68,98.19821,1,0.64
2021-04-05 21:51:53.692 -0400,0,0,0,0,0,0,0,0,0,16191.470577125,-0.0716705322265625,-0.2053985595703125,-1.034469604492188,16191.445411125,2.170340815532603,-0.09790984298498465,0.211808123657305,-0.1208601221442223,-0.1096251159906387,0.3149050176143646,0.05575869232416153,0.03092196583747864,0.04747873544692993,XArbitraryZVertical,-0.09231566771286144,-0.07065955628319412,-0.875960116896257,-0.4681656685975294,-0.0955689325928688,-0.2102279663085938,-0.9729700684547424,0,0,0,-1,-1,16180.22689541667,walking,2,2021-04-05 21:51:42.456 -0400,2021-04-05 19:23:45.401 -0400,774,1.458092,0,0,572.4493,0,0,2021-04-05 21:51:09.036 -0400,639366712.7488158,0,-2.68,98.19821,1,0.64
2021-04-05 21:51:53.723 -0400,0,0,0,0,0,0,0,0,0,16191.505744125,-0.092498779296875,-0.1951751708984375,-1.02392578125,16191.475593125,2.178803393294757,-0.1007665190507368,0.2045505149553847,-0.2101596295833588,-0.06424602121114731,0.3100869655609131,0.02792695909738541,0.002062052488327026,-0.0453762412071228,XArbitraryZVertical,-0.09161760754988789,-0.06718236633809793,-0.8782187656015463,-0.4645691952152125,-0.09849888831377029,-0.2031270712614059,-0.9741854667663574,0,0,0,-1,-1,16180.22689541667,walking,2,2021-04-05 21:51:42.456 -0400,2021-04-05 19:23:45.401 -0400,774,1.458092,0,0,572.4493,0,0,2021-04-05 21:51:09.036 -0400,639366712.7488158,0,-2.68,98.19821,1,0.64
2021-04-05 21:51:53.762 -0400,0,0,0,0,0,0,0,0,0,16191.540950125,-0.164215087890625,-0.249725341796875,-0.9723968505859375,16191.535926125,2.20007298449545,-0.09830568731883282,0.2004078009349848,-0.02023119106888771,0.1200329065322876,0.3033885359764099,-0.03658372163772583,-0.02439594268798828,-0.02036672830581665,XArbitraryZVertical,-0.0888869210060165,-0.06687387528495492,-0.8834530872156569,-0.4551238937427461,-0.09618305414915085,-0.1990689933300018,-0.9752539992332458,0,0,0,-1,-1,16180.22689541667,walking,2,2021-04-05 21:51:42.456 -0400,2021-04-05 19:23:45.401 -0400,774,1.458092,0,0,572.4493,0,0,2021-04-05 21:51:09.036 -0400,639366712.7488158,0,-2.68,98.19821,1,0.64
2021-04-05 21:51:53.793 -0400,0,0,0,0,0,0,0,0,0,16191.576148125,-0.1644287109375,-0.2397308349609375,-0.9171295166015625,16191.566108125,2.205870541349918,-0.09461159625132037,0.1970544493708256,-0.09438718110322952,0.1410250067710876,0.1132345721125603,-0.08013305068016052,-0.05615618824958801,0.02840101718902588,XArbitraryZVertical,-0.08631378651482599,-0.0664760604451546,-0.885114824443742,-0.4524407247287714,-0.09264227002859116,-0.1957816332578659,-0.9762617349624634,0,0,0,-1,-1,16180.22689541667,walking,2,2021-04-05 21:51:42.456 -0400,2021-04-05 19:23:45.401 -0400,774,1.458092,0,0,572.4493,0,0,2021-04-05 21:51:09.036 -0400,639366712.7488158,0,-2.68,98.19821,1,0.64
2021-04-05 21:51:53.833 -0400,0,0,0,0,0,0,0,0,0,16191.611355125,-0.1280059814453125,-0.2050933837890625,-0.922943115234375,16191.596259125,2.20699917534708,-0.09037160686787031,0.1942123955750651,-0.1011540219187737,0.1002993285655975,-0.02680492587387562,-0.06974276155233383,-0.03568963706493378,0.07050347328186035,XArbitraryZVertical,-0.08376825886873468,-0.0662185784457906,-0.8857034470211683,-0.4518044907920132,-0.08855196833610535,-0.1929938048124313,-0.9771959781646729,0,0,0,-1,-1,16180.22689541667,walking,2,2021-04-05 21:51:42.456 -0400,2021-04-05 19:23:45.401 -0400,774,1.458092,0,0,572.4493,0,0,2021-04-05 21:51:09.036 -0400,639366712.7488158,0,-2.68,98.19821,1,0.64
2021-04-05 21:51:53.864 -0400,0,0,0,0,0,0,0,0,0,16191.646552125,-0.1052703857421875,-0.1572265625,-0.9842681884765625,16191.626441125,2.203719289680489,-0.09089863617028746,0.1896877246280021,-0.2464808374643326,-0.09608452022075653,-0.1507888734340668,-0.03281821310520172,-0.01049862802028656,0.04600197076797485,XArbitraryZVertical,-0.08310204425612029,-0.06395046153130737,-0.8851786471764933,-0.4532804497197918,-0.08914532512426376,-0.1885522305965424,-0.9780088067054749,0,0,0,-1,-1,16180.22689541667,walking,2,2021-04-05 21:51:42.456 -0400,2021-04-05 19:23:45.401 -0400,774,1.458092,0,0,572.4493,0,0,2021-04-05 21:51:09.036 -0400,639366712.7488158,0,-2.68,98.19821,1,0.64
2021-04-05 21:51:53.903 -0400,0,0,0,0,0,0,0,0,0,16191.681759125,-0.1123809814453125,-0.157806396484375,-0.9897308349609375,16191.656593125,2.199031062169694,-0.09592350431473559,0.1852449512116914,-0.1812067478895187,-0.1051902770996094,-0.1125009879469872,-0.01113259792327881,0.02696077525615692,-0.005895495414733887,XArbitraryZVertical,-0.08447862892155673,-0.06063844465319043,-0.88413487501923,-0.455512672528041,-0.09413784742355347,-0.1841872930526733,-0.9783726930618286,0,0,0,-1,-1,16180.22689541667,walking,2,2021-04-05 21:51:42.456 -0400,2021-04-05 19:23:45.401 -0400,774,1.458092,0,0,572.4493,0,0,2021-04-05 21:51:09.036 -0400,639366712.7488158,0,-2.68,98.19821,1,0.64
2021-04-05 21:51:53.934 -0400,0,0,0,0,0,0,0,0,0,16191.716956125,-0.1157684326171875,-0.1857452392578125,-1.002578735351562,16191.686775125,2.19686755287898,-0.09981742006043215,0.1837576192449726,-0.09361592680215836,-0.02102355286478996,-0.05097274482250214,-0.00760158896446228,0.02639897167682648,-0.01377993822097778,XArbitraryZVertical,-0.08593096698931334,-0.05899803387107615,-0.8835530667212698,-0.4565840815831061,-0.0979740098118782,-0.1827252060174942,-0.9782701730728149,0,0,0,-1,-1,16180.22689541667,walking,2,2021-04-05 21:51:42.456 -0400,2021-04-05 19:23:45.401 -0400,774,1.458092,0,0,572.4493,0,0,2021-04-05 21:51:09.036 -0400,639366712.7488158,0,-2.68,98.19821,1,0.64
2021-04-05 21:51:54.038 -0400,0,0,0,0,0,0,0,0,0,16191.752163125,-0.0864410400390625,-0.17620849609375,-0.9945220947265625,16191.747108125,2.192688991803503,-0.09760298840385352,0.1776041876871297,-0.03852741047739983,0.07277499139308929,-0.03564294055104256,-0.002778679132461548,-0.0001010745763778687,-0.01943814754486084,XArbitraryZVertical,-0.08369060795644283,-0.0565972627487587,-0.8830068602192189,-0.4583573734272987,-0.09591521322727203,-0.176671952009201,-0.9795852899551392,0,0,0,-1,-1,16180.22689541667,walking,2,2021-04-05 21:51:42.456 -0400,2021-04-05 19:23:45.401 -0400,774,1.458092,0,0,572.4493,0,0,2021-04-05 21:51:09.036 -0400,639366712.7488158,0,-2.68,98.19821,1,0.64
2021-04-05 21:51:54.045 -0400,0,0,0,0,0,0,0,0,0,16191.787330125,-0.08251953125,-0.1793365478515625,-0.960479736328125,16191.777290125,2.192120337990913,-0.09694565908356136,0.1763955632154668,-0.03443800285458565,-0.0003983951173722744,-0.01297170110046864,0.01680062711238861,-0.005380168557167053,-0.00556790828704834,XArbitraryZVertical,-0.08314399170774123,-0.05618824691592066,-0.8829647859636409,-0.4585883317990895,-0.09529188275337219,-0.1754822134971619,-0.9798598885536194,0,0,0,-1,-1,16180.22689541667,walking,2,2021-04-05 21:51:42.456 -0400,2021-04-05 19:23:45.401 -0400,774,1.458092,0,0,572.4493,0,0,2021-04-05 21:51:09.036 -0400,639366712.7488158,0,-2.68,98.19821,1,0.64
2021-04-05 21:51:54.050 -0400,0,0,0,0,0,0,0,0,0,16191.822536125,-0.0902862548828125,-0.169891357421875,-0.9604949951171875,16191.807441125,2.191827214189324,-0.09789435022114222,0.174632608420711,-0.08340600878000259,-0.02843046188354492,-0.01048201136291027,0.009489990770816803,-0.005483344197273254,0.01588785648345947,XArbitraryZVertical,-0.08317336834686295,-0.05517675305599853,-0.8829462733970828,-0.4587413624818467,-0.09625151008367538,-0.1737463474273682,-0.9800754189491272,0,0,0,-1,-1,16180.22689541667,walking,2,2021-04-05 21:51:42.456 -0400,2021-04-05 19:23:45.401 -0400,774,1.458092,0,0,572.4493,0,0,2021-04-05 21:51:09.036 -0400,639366712.7488158,0,-2.68,98.19821,1,0.64
2021-04-05 21:51:54.075 -0400,0,0,0,0,0,0,0,0,0,16191.857734125,-0.08636474609375,-0.1599884033203125,-1.015853881835938,16191.837623125,2.190830743047249,-0.09865292344713586,0.1714571291259283,-0.1448794007301331,-0.03337377682328224,-0.02535696513950825,0.008120529353618622,0.003137856721878052,0.01440548896789551,XArbitraryZVertical,-0.0828185868249748,-0.05355334541818248,-0.8828435299970101,-0.4591954965321141,-0.0970487967133522,-0.1706182956695557,-0.980546236038208,0,0,0,-1,-1,16180.22689541667,walking,2,2021-04-05 21:51:42.456 -0400,2021-04-05 19:23:45.401 -0400,774,1.458092,0,0,572.4493,0,0,2021-04-05 21:51:09.036 -0400,639366712.7488158,0,-2.68,98.19821,1,0.64
2021-04-05 21:51:54.114 -0400,0,0,0,0,0,0,0,0,0,16191.892940125,-0.0753173828125,-0.15576171875,-1.023284912109375,16191.867805125,2.189296455282837,-0.09842008976895235,0.1671544231764685,-0.1514597833156586,-0.0002809907309710979,-0.03169305622577667,0.01052693277597427,0.006388753652572632,-0.03456360101699829,XArbitraryZVertical,-0.08178349250004588,-0.05163634347887239,-0.8827104005277572,-0.4598558557105364,-0.09689173102378845,-0.1663771122694016,-0.9812902808189392,0,0,0,-1,-1,16180.22689541667,walking,2,2021-04-05 21:51:42.456 -0400,2021-04-05 19:23:45.401 -0400,774,1.458092,0,0,572.4493,0,0,2021-04-05 21:51:09.036 -0400,639366712.7488158,0,-2.68,98.19821,1,0.64
