loggingTime,loggingSample,locationTimestamp_since1970,locationLatitude,locationLongitude,locationAltitude,locationSpeed,locationCourse,locationVerticalAccuracy,locationHorizontalAccuracy,locationFloor,locationHeadingTimestamp_since1970,locationHeadingX,locationHeadingY,locationHeadingZ,locationTrueHeading,locationMagneticHeading,locationHeadingAccuracy,accelerometerTimestamp_sinceReboot,accelerometerAccelerationX,accelerometerAccelerationY,accelerometerAccelerationZ,gyroTimestamp_sinceReboot,gyroRotationX,gyroRotationY,gyroRotationZ,magnetometerTimestamp_sinceReboot,magnetometerX,magnetometerY,magnetometerZ,motionTimestamp_sinceReboot,motionYaw,motionRoll,motionPitch,motionRotationRateX,motionRotationRateY,motionRotationRateZ,motionUserAccelerationX,motionUserAccelerationY,motionUserAccelerationZ,motionAttitudeReferenceFrame,motionQuaternionX,motionQuaternionY,motionQuaternionZ,motionQuaternionW,motionGravityX,motionGravityY,motionGravityZ,motionMagneticFieldX,motionMagneticFieldY,motionMagneticFieldZ,motionHeading,motionMagneticFieldCalibrationAccuracy,activityTimestamp_sinceReboot,activity,activityActivityConfidence,activityActivityStartDate,pedometerStartDate,pedometerNumberofSteps,pedometerAverageActivePace,pedometerCurrentPace,pedometerCurrentCadence,pedometerDistance,pedometerFloorAscended,pedometerFloorDescended,pedometerEndDate,altimeterTimestamp_sinceReboot,altimeterReset,altimeterRelativeAltitude,altimeterPressure,IP_Timestamp_since1970,IP_en0,IP_pdp_ip0,deviceID,deviceOrientationTimeStamp_since1970,deviceOrientation,batteryTimeStamp_since1970,batteryState,batteryLevel,avAudioRecorder_Timestamp_since1970,avAudioRecorderPeakPower,avAudioRecorderAveragePower,label
1617674073.783323,1,0,0,0,0,0,0,0,0,0,1617674073.765869,4.213644027709961,12.7343864440918,-37.78540802001953,324.5031127929688,331.5314636230469,17.2716064453125,1048276.168811167,-0.031402587890625,-0.100006103515625,-0.96319580078125,1048276.147642167,0.1068361699581146,0.09038102626800537,-0.071307472884655,1048276.117150167,15.73811340332031,47.1737060546875,-108.3867340087891,1048276.121493167,0.09456926809140688,-0.03006771306840758,0.07898729643195922,-0.08599203824996948,-0.1950629651546478,0.02876806072890759,0.01704525947570801,0.03711140155792236,-0.05987340211868286,2,0.04014482217074065,-0.01313872783815316,0.04663192265270322,0.9980185795558618,-0.02996945008635521,-0.07890518754720688,-0.9964315295219421,4.322644233703613,12.614990234375,-37.85118865966797,-1,2,1048271.893233875,1,2,1617674069.482403,1617673410.617,100,1.502572,0,0,64.93813,0,0,1617674072.032722,1048273.626553,0,-0.3937073,98.16005,0,0,0,0,0,1,1617674073.754547,1,0.1,1617674073.749303,-21.01683,-29.98456,0
1617674073.815414,2,0,0,0,0,0,0,0,0,0,1617674073.805812,4.418502807617188,12.55644226074219,-37.58695220947266,324.5067749023438,331.5351257324219,17.27154541015625,1048276.202435167,-0.0109100341796875,-0.12078857421875,-1.0223388671875,1048276.181265167,0.1487995982170105,0.2985230386257172,0.0136018292978406,1048276.177125167,15.66897583007812,47.30557250976562,-108.1858673095703,1048276.181265167,0.0924626688887465,-0.0239448347068707,0.08545796500304519,0.1374972760677338,0.2932302355766296,0.01550761051476002,-0.00310710072517395,-0.0373571589589119,0.01654237508773804,2,0.04322006798108494,-0.009974451648966567,0.04565852138613397,0.9979718559156046,-0.02385517209768295,-0.08535398542881012,-0.996065080165863,4.326320648193359,12.6434440612793,-37.69537353515625,-1,2,1048271.893233875,1,2,1617674069.482403,1617673410.617,100,1.502572,0,0,64.93813,0,0,1617674072.032722,1048273.626553,0,-0.3937073,98.16005,0,0,0,0,0,1,1617674073.754547,1,0.1,1617674073.783913,-21.01683,-28.21798,0
1617674073.845214,3,0,0,0,0,0,0,0,0,0,1617674073.825547,4.595015525817871,12.43607711791992,-37.78524017333984,324.4100341796875,331.4383850097656,17.27151489257812,1048276.236056167,0.006805419921875,-0.0814971923828125,-1.076339721679688,1048276.214887167,0.04097992181777954,0.1630650907754898,0.08519931882619858,1048276.237107167,16.28117370605469,47.0126953125,-108.1120758056641,1048276.181265167,0.0924626688887465,-0.0239448347068707,0.08545796500304519,0.1374972760677338,0.2932302355766296,0.01550761051476002,-0.00310710072517395,-0.0373571589589119,0.01654237508773804,2,0.04322006798108494,-0.009974451648966567,0.04565852138613397,0.9979718559156046,-0.02385517209768295,-0.08535398542881012,-0.996065080165863,4.326320648193359,12.6434440612793,-37.69537353515625,-1,2,1048271.893233875,1,2,1617674069.482403,1617673410.617,100,1.502572,0,0,64.93813,0,0,1617674072.032722,1048273.626553,0,-0.3937073,98.16005,0,0,0,0,0,1,1617674073.754547,1,0.1,1617674073.816231,-19.36786,-23.28857,0
1617674073.891932,4,0,0,0,0,0,0,0,0,0,1617674073.88551,4.720267295837402,12.32305908203125,-37.74010467529297,324.2001342773438,331.2284851074219,17.2716064453125,1048276.269680167,-0.0023040771484375,-0.0753326416015625,-1.043426513671875,1048276.248508167,0.03067242540419102,-0.1233427077531815,0.05382141843438148,1048276.237107167,16.28117370605469,47.0126953125,-108.1120758056641,1048276.241038167,0.09700142832538572,-0.01514816510187683,0.08665859570246243,0.01842020079493523,-0.07698536664247513,0.07283041626214981,0.01991252601146698,0.006273716688156128,-0.07424032688140869,2,0.04363042069107755,-0.005458042689982439,0.04810712132513989,0.997873879820504,-0.01509074401110411,-0.08655017614364624,-0.9961332082748413,4.859450340270996,12.33688735961914,-37.60842132568359,-1,2,1048271.893233875,1,2,1617674069.482403,1617673410.617,100,1.502572,0,0,64.93813,0,0,1617674072.032722,1048273.626553,0,-0.3937073,98.16005,0,0,0,0,0,1,1617674073.754547,1,0.1,1617674073.848714,-19.06643,-23.54799,0
1617674073.914889,5,0,0,0,0,0,0,0,0,0,1617674073.905458,4.57225513458252,12.35070419311523,-37.74055480957031,324.1536254882812,331.1819763183594,17.27165412902832,1048276.303301167,-0.0149993896484375,-0.0933380126953125,-0.982025146484375,1048276.282132167,0.05635941401124001,-0.1744889765977859,0.03327806293964386,1048276.297080167,15.98623657226562,46.97306823730469,-108.2004547119141,1048276.241038167,0.09700142832538572,-0.01514816510187683,0.08665859570246243,0.01842020079493523,-0.07698536664247513,0.07283041626214981,0.01991252601146698,0.006273716688156128,-0.07424032688140869,2,0.04363042069107755,-0.005458042689982439,0.04810712132513989,0.997873879820504,-0.01509074401110411,-0.08655017614364624,-0.9961332082748413,4.859450340270996,12.33688735961914,-37.60842132568359,-1,2,1048271.893233875,1,2,1617674069.482403,1617673410.617,100,1.502572,0,0,64.93813,0,0,1617674072.032722,1048273.626553,0,-0.3937073,98.16005,0,0,0,0,0,1,1617674073.754547,1,0.1,1617674073.902921,-16.7888,-24.24059,0
1617674073.949976,6,0,0,0,0,0,0,0,0,0,1617674073.945112,4.436125755310059,12.21425628662109,-37.68180084228516,323.9808349609375,331.0091857910156,17.27179145812988,1048276.336922167,-0.0176849365234375,-0.083038330078125,-0.98590087890625,1048276.315753167,0.1314198076725006,0.03917643055319786,0.07920906692743301,1048276.297080167,15.98623657226562,46.97306823730469,-108.2004547119141,1048276.300811167,0.09963733419931189,-0.02457825878424495,0.09016357845562227,0.07514870911836624,-0.05374542623758316,0.06049538776278496,0.008530527353286743,-0.002655640244483948,0.01011782884597778,2,0.04561854575813645,-0.01001704743459446,0.04919058332674275,0.9976967887182765,-0.02447595819830894,-0.09004146605730057,-0.9956372380256653,4.546079635620117,12.30269241333008,-37.74266052246094,-1,2,1048271.893233875,1,2,1617674069.482403,1617673410.617,100,1.502572,0,0,64.93813,0,0,1617674072.032722,1048273.626553,0,-0.3937073,98.16005,0,0,0,0,0,1,1617674073.754547,1,0.1,1617674073.916036,-16.7888,-24.99194,0
1617674073.984624,7,0,0,0,0,0,0,0,0,0,1617674073.96505,4.516884803771973,12.17243194580078,-37.7415771484375,323.8949279785156,330.9232788085938,17.27186584472656,1048276.370546167,-0.013916015625,-0.0858001708984375,-0.9749755859375,1048276.349377167,0.2222477197647095,0.1093616411089897,0.07032609730958939,1048276.357051167,15.9736328125,46.75653076171875,-108.1965789794922,1048276.360584167,0.1041925380322801,-0.01992708009716941,0.09882922490667446,0.1881438195705414,0.07810195535421371,0.05669425055384636,0.006644938141107559,0.01549279689788818,0.008930385112762451,2,0.04984323016039548,-0.007365734645304295,0.051515095476585,0.9974004004557451,-0.01982853002846241,-0.0986684188246727,-0.9949228167533875,4.545429229736328,12.02941131591797,-37.61436462402344,-1,2,1048276.349792167,1,2,1617674073.938962,1617673410.617,100,1.502572,0,0,64.93813,0,0,1617674072.032722,1048273.626553,0,-0.3937073,98.16005,0,0,0,0,0,1,1617674073.754547,1,0.1,1617674073.98281,-16.7888,-26.29559,0
1617674074.019867,8,0,0,0,0,0,0,0,0,0,1617674074.004932,4.614640235900879,11.86393737792969,-37.91475677490234,323.7492065429688,330.7775573730469,17.27190208435059,1048276.404167167,-0.0120849609375,-0.1121978759765625,-0.9836273193359375,1048276.382998167,0.08501795679330826,0.0962599590420723,0.05782947689294815,1048276.357051167,15.9736328125,46.75653076171875,-108.1965789794922,1048276.360584167,0.1041925380322801,-0.01992708009716941,0.09882922490667446,0.1881438195705414,0.07810195535421371,0.05669425055384636,0.006644938141107559,0.01549279689788818,0.008930385112762451,2,0.04984323016039548,-0.007365734645304295,0.051515095476585,0.9974004004557451,-0.01982853002846241,-0.0986684188246727,-0.9949228167533875,4.545429229736328,12.02941131591797,-37.61436462402344,-1,2,1048276.349792167,1,2,1617674073.938962,1617673410.617,100,1.502572,0,0,64.93813,0,0,1617674072.032722,1048273.626553,0,-0.3937073,98.16005,0,0,0,0,0,1,1617674073.754547,1,0.1,1617674074.019846,-16.7888,-22.73932,0
1617674074.044672,9,0,0,0,0,0,0,0,0,0,1617674074.024954,4.760706901550293,11.78610229492188,-38.02536773681641,323.5986938476562,330.6270446777344,17.27186965942383,1048276.437789167,-0.02496337890625,-0.0806884765625,-0.99383544921875,1048276.416620167,0.06048145145177841,0.03966885060071945,0.1560955941677094,1048276.417027167,16.21907043457031,46.38192749023438,-108.4632415771484,1048276.420357167,0.1098595333037345,-0.01561414446081131,0.1025229707951731,0.05924816429615021,0.02392294630408287,0.1624368131160736,0.003675450570881367,0.00389380007982254,-0.01997476816177368,2,0.05158825486475553,-0.00497193077731951,0.05442893898531359,0.9971717089334664,-0.01553152501583099,-0.102343462407589,-0.9946278929710388,4.792109489440918,11.8608512878418,-37.99466705322266,-1,2,1048276.349792167,1,2,1617674073.938962,1617673410.617,100,1.502572,0,0,64.93813,0,0,1617674072.032722,1048273.626553,0,-0.3937073,98.16005,0,0,0,0,0,1,1617674073.754547,1,0.1,1617674074.019846,-16.7888,-22.73932,0
1617674074.084235,10,0,0,0,0,0,0,0,0,0,1617674074.06468,4.830445289611816,11.7292594909668,-38.09258270263672,323.2427978515625,330.2711486816406,17.27181434631348,1048276.471412167,-0.0360870361328125,-0.0626373291015625,-1.006637573242188,1048276.450243167,0.05703958496451378,0.09357522428035736,0.1313937157392502,1048276.476994167,16.32603454589844,46.34959411621094,-108.6209564208984,1048276.420357167,0.1098595333037345,-0.01561414446081131,0.1025229707951731,0.05924816429615021,0.02392294630408287,0.1624368131160736,0.003675450570881367,0.00389380007982254,-0.01997476816177368,2,0.05158825486475553,-0.00497193077731951,0.05442893898531359,0.9971717089334664,-0.01553152501583099,-0.102343462407589,-0.9946278929710388,4.792109489440918,11.8608512878418,-37.99466705322266,-1,2,1048276.349792167,1,2,1617674073.938962,1617673410.617,100,1.502572,0,0,64.93813,0,0,1617674072.032722,1048273.626553,0,-0.3937073,98.16005,0,0,0,0,0,1,1617674073.754547,1,0.1,1617674074.081889,-5.220092,-7.115499,0
1617674074.114057,11,0,0,0,0,0,0,0,0,0,1617674074.104637,5.051867485046387,11.67406463623047,-38.15009307861328,323.0699768066406,330.0983276367188,17.27176284790039,1048276.505034167,-0.026336669921875,-0.055328369140625,-1.064422607421875,1048276.483864167,-0.03390230610966682,0.04883145540952682,0.05317826569080353,1048276.476994167,16.32603454589844,46.34959411621094,-108.6209564208984,1048276.480129167,0.1177176030004644,-0.01218245803299016,0.1036113839456943,-0.04887121170759201,0.07189979404211044,0.07106970250606537,-0.01672228425741196,0.04449669271707535,-0.03360438346862793,2,0.05204972309546945,-0.003026444414233852,0.05842993953939035,0.9969291251047756,-0.01211682520806789,-0.1034260988235474,-0.9945633411407471,4.941937446594238,11.70831298828125,-38.12698364257812,-1,2,1048276.349792167,1,2,1617674073.938962,1617673410.617,100,1.502572,0,0,64.93813,0,0,1617674072.032722,1048273.626553,0,-0.3937073,98.16005,0,0,0,0,0,1,1617674073.754547,1,0.1,1617674074.081889,-5.220092,-7.115499,0
1617674074.154022,12,0,0,0,0,0,0,0,0,0,1617674074.144347,4.993006706237793,11.72173309326172,-38.31253051757812,323.2044372558594,330.2327880859375,17.27170753479004,1048276.538657167,-0.03704833984375,-0.11712646484375,-0.9843902587890625,1048276.517486167,-0.02102618850767612,-0.1890106648206711,-0.07771183550357819,1048276.536967167,16.38941955566406,46.3426513671875,-108.7517547607422,1048276.480129167,0.1177176030004644,-0.01218245803299016,0.1036113839456943,-0.04887121170759201,0.07189979404211044,0.07106970250606537,-0.01672228425741196,0.04449669271707535,-0.03360438346862793,2,0.05204972309546945,-0.003026444414233852,0.05842993953939035,0.9969291251047756,-0.01211682520806789,-0.1034260988235474,-0.9945633411407471,4.941937446594238,11.70831298828125,-38.12698364257812,-1,2,1048276.349792167,1,2,1617674073.938962,1617673410.617,100,1.502572,0,0,64.93813,0,0,1617674072.032722,1048273.626553,0,-0.3937073,98.16005,0,0,0,0,0,1,1617674073.754547,1,0.1,1617674074.149466,-5.220092,-10.30338,0
1617674074.191158,13,0,0,0,0,0,0,0,0,0,1617674074.184355,4.859435081481934,11.75171279907227,-38.27345275878906,323.2832641601562,330.3116149902344,17.27170753479004,1048276.572279167,-0.031707763671875,-0.1063690185546875,-1.030044555664062,1048276.551109167,-0.01374510675668716,0.03766988217830658,-0.02907319739460945,1048276.536967167,16.38941955566406,46.3426513671875,-108.7517547607422,1048276.539902167,0.115696158756256,-0.01885410658913338,0.1002745040954935,-0.05498598515987396,-0.05372007191181183,-0.04577101767063141,-0.01829004846513271,-0.01701987534761429,0.0104096531867981,2,0.05057453500942301,-0.00650193547569846,0.05726895216115979,0.9970557677404852,-0.01875828579068184,-0.1001065447926521,-0.9947999119758606,4.993006706237793,11.72173309326172,-38.31253051757812,-1,2,1048276.349792167,1,2,1617674073.938962,1617673410.617,100,1.502572,0,0,64.93813,0,0,1617674072.032722,1048273.626553,0,-0.3937073,98.16005,0,0,0,0,0,1,1617674073.754547,1,0.1,1617674074.149466,-5.220092,-10.30338,0
1617674074.214097,14,0,0,0,0,0,0,0,0,0,1617674074.204106,4.81482982635498,11.88129425048828,-38.31110382080078,323.3622131347656,330.3905639648438,17.27173614501953,1048276.605900167,-0.02099609375,-0.1208038330078125,-1.012832641601562,1048276.584731167,0.1730284988880157,0.03369271755218506,-0.0752156600356102,1048276.596941167,16.34727478027344,46.43565368652344,-108.6982421875,1048276.539902167,0.115696158756256,-0.01885410658913338,0.1002745040954935,-0.05498598515987396,-0.05372007191181183,-0.04577101767063141,-0.01829004846513271,-0.01701987534761429,0.0104096531867981,2,0.05057453500942301,-0.00650193547569846,0.05726895216115979,0.9970557677404852,-0.01875828579068184,-0.1001065447926521,-0.9947999119758606,4.993006706237793,11.72173309326172,-38.31253051757812,-1,2,1048276.349792167,1,2,1617674073.938962,1617673410.617,100,1.502572,0,0,64.93813,0,0,1617674072.032722,1048273.626553,0,-0.3937073,98.16005,0,0,0,0,0,1,1617674073.754547,1,0.1,1617674074.201597,-5.220092,-12.34715,0
1617674074.263609,15,0,0,0,0,0,0,0,0,0,1617674074.244087,4.912911415100098,11.63730621337891,-38.32927703857422,323.5211486816406,330.5494995117188,17.2718448638916,1048276.639524167,-0.0111541748046875,-0.135955810546875,-0.9854888916015625,1048276.618354167,0.1936775892972946,0.05929607897996902,-0.07689371705055237,1048276.596941167,16.34727478027344,46.43565368652344,-108.6982421875,1048276.599675167,0.1127655839785471,-0.01704482131868018,0.1024301175803674,0.190599262714386,0.0401989258825779,-0.09076730906963348,-0.007734056562185287,-0.01249496638774872,-0.0260615348815918,2,0.05158909470773699,-0.005612856095914352,0.05584140364932288,0.9970901477197496,-0.01695466227829456,-0.1022510975599289,-0.9946141242980957,4.883116722106934,11.84214782714844,-38.27364349365234,-1,2,1048276.349792167,1,2,1617674073.938962,1617673410.617,100,1.502572,0,0,64.93813,0,0,1617674072.032722,1048273.626553,0,-0.3937073,98.16005,0,0,0,0,0,1,1617674073.754547,1,0.1,1617674074.263593,-5.220092,-15.17856,0
1617674074.283751,16,0,0,0,0,0,0,0,0,0,1617674074.263817,4.980732917785645,11.53915786743164,-38.5419921875,323.5469360351562,330.5752868652344,17.27188491821289,1048276.673145167,-0.008575439453125,-0.1324462890625,-0.99761962890625,1048276.651976167,0.1704684048891068,0.09367801994085312,-0.02056066878139973,1048276.656909167,16.54519653320312,46.1240234375,-108.9608154296875,1048276.659448167,0.1099009456209647,-0.0136530735899564,0.113054114313397,0.1626239866018295,0.05518275499343872,-0.01697968877851963,0.00236554816365242,-0.02240991592407227,-0.002509117126464844,2,0.05678469961542685,-0.003702392724685352,0.05444872824310487,0.9968937195808272,-0.01356549374759197,-0.1128134429454803,-0.9935235977172852,5.071927070617676,11.52183532714844,-38.52719879150391,-1,2,1048276.668793167,2,0,1617674074.257963,1617673410.617,100,1.502572,0,0,64.93813,0,0,1617674072.032722,1048273.626553,0,-0.3937073,98.16005,0,0,0,0,0,1,1617674073.754547,1,0.1,1617674074.282827,-5.220092,-16.0027,0
1617674074.321979,17,0,0,0,0,0,0,0,0,0,1617674074.304007,5.128432273864746,11.27742004394531,-38.41800689697266,323.5582885742188,330.5866394042969,17.27185440063477,1048276.706766167,-0.0187835693359375,-0.1192169189453125,-0.9717864990234375,1048276.685597167,0.125168040394783,0.09611614793539047,-0.004327103961259127,1048276.656909167,16.54519653320312,46.1240234375,-108.9608154296875,1048276.659448167,0.1099009456209647,-0.0136530735899564,0.113054114313397,0.1626239866018295,0.05518275499343872,-0.01697968877851963,0.00236554816365242,-0.02240991592407227,-0.002509117126464844,2,0.05678469961542685,-0.003702392724685352,0.05444872824310487,0.9968937195808272,-0.01356549374759197,-0.1128134429454803,-0.9935235977172852,5.071927070617676,11.52183532714844,-38.52719879150391,-1,2,1048276.668793167,2,0,1617674074.257963,1617673410.617,100,1.502572,0,0,64.93813,0,0,1617674072.032722,1048273.626553,0,-0.3937073,98.16005,0,0,0,0,0,1,1617674073.754547,1,0.1,1617674074.321948,-5.220092,-15.02214,0
1617674074.353453,18,0,0,0,0,0,0,0,0,0,1617674074.344056,5.264954566955566,10.90848922729492,-38.46200561523438,323.5519409179688,330.5802917480469,17.27179336547852,1048276.740390167,-0.006011962890625,-0.09942626953125,-1.005126953125,1048276.719221167,0.08660279959440231,0.1869533807039261,-0.00256036315113306,1048276.716886167,16.64923095703125,45.64285278320312,-108.9618530273438,1048276.719221167,0.1098475302154921,-0.007390677599060594,0.1201728197829475,0.07529880851507187,0.1816601306200027,-0.0006539715686812997,-0.004366178065538406,0.008677765727043152,0.007287204265594482,2,0.06016179219714782,-0.0003865935373380015,0.05457514140119729,0.9966955345533615,-0.007337308954447508,-0.1198837831616402,-0.9927608370780945,5.21665096282959,11.05232620239258,-38.51305389404297,-1,2,1048276.668793167,2,0,1617674074.257963,1617673410.617,100,1.502572,0,0,64.93813,0,0,1617674072.032722,1048273.626553,0,-0.3937073,98.16005,0,0,0,0,0,1,1617674073.754547,1,0.1,1617674074.349447,-5.220092,-12.22208,0
1617674074.383504,19,0,0,0,0,0,0,0,0,0,1617674074.363561,5.375540733337402,10.76756286621094,-38.50614929199219,323.5722961425781,330.6006469726562,17.27176666259766,1048276.774011167,-0.0117645263671875,-0.0843963623046875,-0.9401092529296875,1048276.752842167,0.06517793983221054,0.03614548593759537,-0.03926484659314156,1048276.716886167,16.64923095703125,45.64285278320312,-108.9618530273438,1048276.719221167,0.1098475302154921,-0.007390677599060594,0.1201728197829475,0.07529880851507187,0.1816601306200027,-0.0006539715686812997,-0.004366178065538406,0.008677765727043152,0.007287204265594482,2,0.06016179219714782,-0.0003865935373380015,0.05457514140119729,0.9966955345533615,-0.007337308954447508,-0.1198837831616402,-0.9927608370780945,5.21665096282959,11.05232620239258,-38.51305389404297,-1,2,1048276.668793167,2,0,1617674074.257963,1617673410.617,100,1.502572,0,0,64.93813,0,0,1617674072.032722,1048273.626553,0,-0.3937073,98.16005,0,0,0,0,0,1,1617674073.754547,1,0.1,1617674074.383485,-5.220092,-12.32124,0
1617674074.430501,20,0,0,0,0,0,0,0,0,0,1617674074.423352,5.593932151794434,10.71846771240234,-38.43161773681641,323.82763671875,330.8559875488281,17.27173233032227,1048276.807635167,0.007415771484375,-0.1184844970703125,-1.006439208984375,1048276.786463167,-0.0477166548371315,0.1440479904413223,-0.09199783205986023,1048276.776853167,17.04454040527344,45.44236755371094,-108.9373474121094,1048276.778993167,0.1077559695972984,-0.002567682570437599,0.1233171275992818,-0.05109243839979172,0.1264467984437943,-0.09048245847225189,-0.009429965168237686,0.03424448519945145,0.05623036623001099,2,0.06159904617789805,0.002038784400369018,0.05367055099094392,0.9966548007999121,-0.002548180986195803,-0.1230048164725304,-0.9924027919769287,5.60140323638916,10.81021118164062,-38.51333618164062,-1,2,1048276.668793167,2,0,1617674074.257963,1617673410.617,100,1.502572,0,0,64.93813,0,0,1617674072.032722,1048273.626553,0,-0.3937073,98.16005,0,0,0,0,0,1,1617674073.754547,1,0.1,1617674074.416028,-5.220092,-12.55689,0
1617674074.452813,21,0,0,0,0,0,0,0,0,0,1617674074.443486,5.641470909118652,10.70103073120117,-38.50811004638672,323.8761596679688,330.9045104980469,17.2717227935791,1048276.841256167,-0.000579833984375,-0.1280670166015625,-1.004119873046875,1048276.820087167,0.06557128578424454,0.04815554618835449,-0.05056224390864372,1048276.836824167,17.16421508789062,45.17085266113281,-108.8924560546875,1048276.778993167,0.1077559695972984,-0.002567682570437599,0.1233171275992818,-0.05109243839979172,0.1264467984437943,-0.09048245847225189,-0.009429965168237686,0.03424448519945145,0.05623036623001099,2,0.06159904617789805,0.002038784400369018,0.05367055099094392,0.9966548007999121,-0.002548180986195803,-0.1230048164725304,-0.9924027919769287,5.60140323638916,10.81021118164062,-38.51333618164062,-1,2,1048276.668793167,2,0,1617674074.257963,1617673410.617,100,1.502572,0,0,64.93813,0,0,1617674072.032722,1048273.626553,0,-0.3937073,98.16005,0,0,0,0,0,1,1617674073.754547,1,0.1,1617674074.449291,-5.220092,-13.57498,0
1617674074.490779,22,0,0,0,0,0,0,0,0,0,1617674074.483118,5.611575126647949,10.59125518798828,-38.51949310302734,323.9738159179688,331.0021667480469,17.27167320251465,1048276.874878167,-0.0130767822265625,-0.1372528076171875,-0.9660491943359375,1048276.853708167,-0.005796103738248348,-0.0835028812289238,-0.04817844927310944,1048276.836824167,17.16421508789062,45.17085266113281,-108.8924560546875,1048276.838766167,0.1040472631166458,0.001257975634173619,0.1228326147145975,0.03699721768498421,-0.04590758681297302,-0.03477589040994644,-0.0005923621356487274,-0.00592447817325592,-0.01350140571594238,2,0.06126200277229228,0.003818602084445528,0.05194066702186484,0.9967621086973933,0.001248497166670859,-0.1225239709019661,-0.9924647808074951,5.702818870544434,10.60140991210938,-38.46865081787109,-1,2,1048276.668793167,2,0,1617674074.257963,1617673410.617,100,1.502572,0,0,64.93813,0,0,1617674072.032722,1048273.626553,0,-0.3937073,98.16005,0,0,0,0,0,1,1617674073.754547,1,0.1,1617674074.449291,-5.220092,-13.57498,0
1617674074.522682,23,0,0,0,0,0,0,0,0,0,1617674074.503029,5.512848854064941,10.73276519775391,-38.50438690185547,324.0195617675781,331.0479125976562,17.27164459228516,1048276.908501625,-0.0038604736328125,-0.14666748046875,-0.9912567138671875,1048276.887332167,-0.064930260181427,0.02093830518424511,-0.03577051311731339,1048276.896799167,16.95510864257812,45.40806579589844,-108.9844207763672,1048276.898539167,0.1015965848658904,-0.0006947163292227118,0.1194637746975099,-0.04628607258200645,0.0430915430188179,-0.01832202449440956,-0.00465080514550209,-0.0259769931435585,0.01161026954650879,2,0.05963697466895918,0.002684878799655423,0.05066518313494484,0.9969298568578272,-0.0006897647981531918,-0.1191798225045204,-0.992872416973114,5.516619682312012,10.7801399230957,-38.53338623046875,-1,2,1048276.668793167,2,0,1617674074.257963,1617673410.617,100,1.502572,0,0,64.93813,0,0,1617674072.032722,1048273.626553,0,-0.3937073,98.16005,0,0,0,0,0,1,1617674073.754547,1,0.1,1617674074.516229,-5.220092,-15.24854,0
1617674074.563214,24,0,0,0,0,0,0,0,0,0,1617674074.542955,5.571534156799316,10.73771667480469,-38.49652099609375,324.010498046875,331.0388488769531,17.27160263061523,1048276.942122625,0.0022125244140625,-0.126434326171875,-1.015045166015625,1048276.920953625,0.04809402674436569,0.08445656299591064,0.01614914275705814,1048276.896799167,16.95510864257812,45.40806579589844,-108.9844207763672,1048276.898539167,0.1015965848658904,-0.0006947163292227118,0.1194637746975099,-0.04628607258200645,0.0430915430188179,-0.01832202449440956,-0.00465080514550209,-0.0259769931435585,0.01161026954650879,2,0.05963697466895918,0.002684878799655423,0.05066518313494484,0.9969298568578272,-0.0006897647981531918,-0.1191798225045204,-0.992872416973114,5.516619682312012,10.7801399230957,-38.53338623046875,-1,2,1048276.668793167,2,0,1617674074.257963,1617673410.617,100,1.502572,0,0,64.93813,0,0,1617674072.032722,1048273.626553,0,-0.3937073,98.16005,0,0,0,0,0,1,1617674073.754547,1,0.1,1617674074.563189,-5.220092,-16.50471,0
1617674074.582549,25,0,0,0,0,0,0,0,0,0,1617674074.562808,5.602597236633301,10.73904800415039,-38.68098449707031,323.9949951171875,331.0233459472656,17.27157783508301,1048276.975744625,0.0023193359375,-0.1285247802734375,-1.008834838867188,1048276.954575625,0.07063262164592743,0.00914343073964119,0.0001432780700270087,1048276.956780625,17.06535339355469,45.28121948242188,-109.1491241455078,1048276.958312625,0.1021618445064079,0.001995622920258582,0.1224725305920449,0.047602329403162,-0.006005233619362116,-0.0007192264311015606,0.002047650516033173,0.0009202808141708374,-0.02572661638259888,2,0.06106729869021274,0.004119332003380164,0.05102397065402303,0.9968200808627086,0.001980673521757126,-0.1221665889024734,-0.9925076365470886,5.621029853820801,10.69118499755859,-38.70147705078125,-1,2,1048276.668793167,2,0,1617674074.257963,1617673410.617,100,1.502572,0,0,64.93813,0,0,1617674072.032722,1048273.626553,0,-0.3937073,98.16005,0,0,0,0,0,1,1617674073.754547,1,0.1,1617674074.563189,-5.220092,-16.50471,0
1617674074.623702,26,0,0,0,0,0,0,0,0,0,1617674074.622609,5.651455879211426,10.74381637573242,-38.59910583496094,323.9548034667969,330.983154296875,17.27152442932129,1048277.009367625,0.0074005126953125,-0.1239013671875,-1.031265258789062,1048276.988198625,-0.02358735166490078,-0.0432039275765419,0.01778325811028481,1048276.956780625,17.06535339355469,45.28121948242188,-109.1491241455078,1048276.958312625,0.1021618445064079,0.001995622920258582,0.1224725305920449,0.047602329403162,-0.006005233619362116,-0.0007192264311015606,0.002047650516033173,0.0009202808141708374,-0.02572661638259888,2,0.06106729869021274,0.004119332003380164,0.05102397065402303,0.9968200808627086,0.001980673521757126,-0.1221665889024734,-0.9925076365470886,5.621029853820801,10.69118499755859,-38.70147705078125,-1,2,1048276.993647625,1,2,1617674074.582817,1617673410.617,100,1.502572,0,0,64.93813,0,0,1617674074.582957,1048274.575977,0,-0.3619995,98.15968,0,0,0,0,0,1,1617674073.754547,1,0.1,1617674074.623598,-5.220092,-17.68941,0
1617674074.652378,27,0,0,0,0,0,0,0,0,0,1617674074.642979,5.608267784118652,10.79949569702148,-38.43269348144531,323.9490661621094,330.9774169921875,17.27153968811035,1048277.042989625,-0.0128631591796875,-0.1162109375,-0.9907684326171875,1048277.021819625,-0.03353852033615112,-0.1570154428482056,0.003645867574959993,1048277.016751625,17.06137084960938,45.43132019042969,-108.8697814941406,1048277.018084625,0.1028828097677358,-0.002000555151013173,0.1223906685847798,-0.04189538210630417,-0.1517359018325806,0.006005499046295881,0.005891844630241394,0.002151302993297577,-0.03114873170852661,2,0.06112755663497587,0.002147536805715909,0.05126135628876899,0.9968103974638998,-0.001985588809475303,-0.122085340321064,-0.9925175905227661,5.632086753845215,10.79992294311523,-38.47833251953125,-1,2,1048276.993647625,1,2,1617674074.582817,1617673410.617,100,1.502572,0,0,64.93813,0,0,1617674074.582957,1048274.575977,0,-0.3619995,98.15968,0,0,0,0,0,1,1617674073.754547,1,0.1,1617674074.648813,-5.220092,-18.56944,0
1617674074.691766,28,0,0,0,0,0,0,0,0,0,1617674074.682373,5.388110160827637,10.88098526000977,-38.54042816162109,324.001953125,331.0303039550781,17.27161026000977,1048277.076612625,-0.02239990234375,-0.104278564453125,-0.9672088623046875,1048277.055441625,0.02330106124281883,-0.1313502937555313,-0.02600470185279846,1048277.076719625,16.72477722167969,45.43403625488281,-109.0536804199219,1048277.018084625,0.1028828097677358,-0.002000555151013173,0.1223906685847798,-0.04189538210630417,-0.1517359018325806,0.006005499046295881,0.005891844630241394,0.002151302993297577,-0.03114873170852661,2,0.06112755663497587,0.002147536805715909,0.05126135628876899,0.9968103974638998,-0.001985588809475303,-0.122085340321064,-0.9925175905227661,5.632086753845215,10.79992294311523,-38.47833251953125,-1,2,1048276.993647625,1,2,1617674074.582817,1617673410.617,100,1.502572,0,0,64.93813,0,0,1617674074.582957,1048274.575977,0,-0.3619995,98.15968,0,0,0,0,0,1,1617674073.754547,1,0.1,1617674074.686647,-5.220092,-20.08645,0
1617674074.730591,29,0,0,0,0,0,0,0,0,0,1617674074.72221,5.254948616027832,10.70182800292969,-38.43105316162109,324.1797485351562,331.2080993652344,17.27161026000977,1048277.110234625,-0.024688720703125,-0.1191864013671875,-0.9760284423828125,1048277.089064625,0.1581419706344604,0.1156392470002174,-0.07355810701847076,1048277.076719625,16.72477722167969,45.43403625488281,-109.0536804199219,1048277.077857625,0.1016993643719789,-0.008781490373047511,0.1226236875377737,0.1012906655669212,0.01120887324213982,-0.06381236016750336,-0.0136844590306282,0.0180380791425705,0.02524399757385254,2,0.06141639913850157,-0.001262454092699736,0.05046309015525574,0.9968349520589173,-0.008715439587831497,-0.1223166137933731,-0.99245285987854,5.316340446472168,10.84090423583984,-38.59319305419922,-1,2,1048276.993647625,1,2,1617674074.582817,1617673410.617,100,1.502572,0,0,64.93813,0,0,1617674074.582957,1048274.575977,0,-0.3619995,98.15968,0,0,0,0,0,1,1617674073.754547,1,0.1,1617674074.716019,-5.220092,-20.93767,0
1617674074.751651,30,0,0,0,0,0,0,0,0,0,1617674074.742235,5.299338340759277,10.59285736083984,-38.73975372314453,324.3165283203125,331.3448791503906,17.27160263061523,1048277.143855625,-0.004058837890625,-0.131591796875,-1.014923095703125,1048277.122686625,0.16684490442276,0.2412435114383698,-0.1222231164574623,1048277.136696625,16.7822265625,45.00216674804688,-109.2133483886719,1048277.077857625,0.1016993643719789,-0.008781490373047511,0.1226236875377737,0.1012906655669212,0.01120887324213982,-0.06381236016750336,-0.0136844590306282,0.0180380791425705,0.02524399757385254,2,0.06141639913850157,-0.001262454092699736,0.05046309015525574,0.9968349520589173,-0.008715439587831497,-0.1223166137933731,-0.99245285987854,5.316340446472168,10.84090423583984,-38.59319305419922,-1,2,1048276.993647625,1,2,1617674074.582817,1617673410.617,100,1.502572,0,0,64.93813,0,0,1617674074.582957,1048274.575977,0,-0.3619995,98.15968,0,0,0,0,0,1,1617674073.754547,1,0.1,1617674074.749208,-5.220092,-22.27546,0
1617674074.800916,31,0,0,0,0,0,0,0,0,0,1617674074.78194,5.59499454498291,10.33748626708984,-38.68316650390625,324.6404113769531,331.6687622070312,17.27157974243164,1048277.177478625,0.00408935546875,-0.150634765625,-1.009445190429688,1048277.156309625,0.03271160647273064,0.1675551682710648,-0.1503532826900482,1048277.136696625,16.7822265625,45.00216674804688,-109.2133483886719,1048277.137630625,0.09585626371873132,0.002505260310527162,0.131011244041677,0.1005432531237602,0.1890739947557449,-0.1419563144445419,-0.0109218955039978,0.003531113266944885,-0.01432538032531738,2,0.06532368306498984,0.004384622172349438,0.04788889712910094,0.9967046534487614,0.002483788412064314,-0.1306367814540863,-0.9914271831512451,5.332173347473145,10.44994354248047,-38.76414489746094,-1,2,1048276.993647625,1,2,1617674074.582817,1617673410.617,100,1.502572,0,0,64.93813,0,0,1617674074.582957,1048274.575977,0,-0.3619995,98.15968,1617674074.75529,587422867,1685438189,0,0,1,1617674073.754547,1,0.1,1617674074.800885,-5.220092,-23.65456,0
1617674074.821515,32,0,0,0,0,0,0,0,0,0,1617674074.801969,5.621424674987793,10.42124938964844,-38.80457305908203,324.7684326171875,331.7967834472656,17.27156639099121,1048277.211100625,0.0291290283203125,-0.1329803466796875,-1.053207397460938,1048277.189931625,-0.01808046735823154,0.2304656952619553,-0.1079118177294731,1048277.196666625,17.1937255859375,44.98922729492188,-109.2038269042969,1048277.197403625,0.08816372578936835,0.01259588170387788,0.1303567671580372,-0.006838389672338963,0.2325268387794495,-0.1022302284836769,0.001763029955327511,-0.0159928947687149,-0.03558635711669922,2,0.06479074217815525,0.00914858643472936,0.04438294512463453,0.996869339035616,0.01248868275433779,-0.129987895488739,-0.9914368987083435,5.71822452545166,10.391845703125,-38.77577972412109,-1,2,1048276.993647625,1,2,1617674074.582817,1617673410.617,100,1.502572,0,0,64.93813,0,0,1617674074.582957,1048274.575977,0,-0.3619995,98.15968,1617674074.75529,587422867,1685438189,0,0,1,1617674073.754547,1,0.1,1617674074.816164,-5.220092,-24.21499,0
1617674074.859721,33,0,0,0,0,0,0,0,0,0,1617674074.841868,5.925858497619629,10.45682525634766,-38.53985595703125,325.0365295410156,332.0648803710938,17.27155113220215,1048277.244721625,0.0434112548828125,-0.1297760009765625,-1.033233642578125,1048277.223552625,0.1611955463886261,0.1309990286827087,-0.136994868516922,1048277.196666625,17.1937255859375,44.98922729492188,-109.2038269042969,1048277.197403625,0.08816372578936835,0.01259588170387788,0.1303567671580372,-0.006838389672338963,0.2325268387794495,-0.1022302284836769,0.001763029955327511,-0.0159928947687149,-0.03558635711669922,2,0.06479074217815525,0.00914858643472936,0.04438294512463453,0.996869339035616,0.01248868275433779,-0.129987895488739,-0.9914368987083435,5.71822452545166,10.391845703125,-38.77577972412109,-1,2,1048276.993647625,1,2,1617674074.582817,1617673410.617,100,1.502572,0,0,64.93813,0,0,1617674074.582957,1048274.575977,0,-0.3619995,98.15968,1617674074.75529,587422867,1685438189,0,0,1,1617674073.754547,1,0.1,1617674074.85969,-5.220092,-25.40992,0
1617674074.891504,34,0,0,0,0,0,0,0,0,0,1617674074.881432,6.00376033782959,10.1191291809082,-38.54345703125,325.4278259277344,332.4561767578125,17.27186393737793,1048277.278345625,0.0338134765625,-0.195220947265625,-0.962371826171875,1048277.257175625,0.2969605624675751,-0.01994121819734573,-0.1741172075271606,1048277.256633625,17.41635131835938,44.87901306152344,-109.1656188964844,1048277.257175625,0.07945666651501748,0.01855436748078226,0.1401791260494459,0.2856554687023163,-0.02523474767804146,-0.1722104102373123,0.02137783356010914,-0.01263846457004547,-0.01469439268112183,2,0.06960635793597601,0.01202838112689415,0.04026783898876479,0.9966889244706998,0.01837131381034851,-0.1397204846143723,-0.9900205731391907,5.981398582458496,10.29040908813477,-38.69429779052734,-1,2,1048276.993647625,1,2,1617674074.582817,1617673410.617,100,1.502572,0,0,64.93813,0,0,1617674074.582957,1048274.575977,0,-0.3619995,98.15968,1617674074.75529,587422867,1685438189,0,0,1,1617674073.754547,1,0.1,1617674074.882909,-5.220092,-26.21166,0
1617674074.921636,35,0,0,0,0,0,0,0,0,0,1617674074.901458,6.009360313415527,10.01385498046875,-38.65446472167969,325.4975891113281,332.5259399414062,17.27202796936035,1048277.311966625,0.018798828125,-0.17645263671875,-0.9579315185546875,1048277.290797625,0.1200981810688972,0.0008586031035520136,-0.006022472400218248,1048277.256633625,17.41635131835938,44.87901306152344,-109.1656188964844,1048277.257175625,0.07945666651501748,0.01855436748078226,0.1401791260494459,0.2856554687023163,-0.02523474767804146,-0.1722104102373123,0.02137783356010914,-0.01263846457004547,-0.01469439268112183,2,0.06960635793597601,0.01202838112689415,0.04026783898876479,0.9966889244706998,0.01837131381034851,-0.1397204846143723,-0.9900205731391907,5.981398582458496,10.29040908813477,-38.69429779052734,-1,2,1048276.993647625,1,2,1617674074.582817,1617673410.617,100,1.502572,0,0,64.93813,0,0,1617674074.582957,1048274.575977,0,-0.3619995,98.15968,1617674074.75529,587422867,1685438189,0,0,1,1617674073.754547,1,0.1,1617674074.921616,-5.220092,-26.56351,0
1617674074.960964,36,0,0,0,0,0,0,0,0,0,1617674074.941846,5.96816349029541,9.923076629638672,-38.84157562255859,325.3888244628906,332.4171752929688,17.27209854125977,1048277.345590625,0.003509521484375,-0.1109466552734375,-0.9618377685546875,1048277.324418625,-0.04002411663532257,-0.03222637996077538,0.05621267110109329,1048277.316601625,17.34461975097656,44.5430908203125,-109.3694915771484,1048277.316948625,0.07699155348997519,0.01840830894824664,0.1471128580412595,-0.02986158058047295,-0.03136179596185684,0.06671850383281708,-0.0009965263307094574,-0.02089764177799225,0.03033632040023804,2,0.07307929379356626,0.01200057761691173,0.03905648116667576,0.9964887652714831,0.01820844225585461,-0.1465827971696854,-0.9890307784080505,5.907761573791504,9.960556030273438,-38.8795166015625,-1,2,1048276.993647625,1,2,1617674074.582817,1617673410.617,100,1.502572,0,0,64.93813,0,0,1617674074.582957,1048274.575977,0,-0.3619995,98.15968,1617674074.75529,587422867,1685438189,0,0,1,1617674073.754547,1,0.1,1617674074.949389,-5.220092,-26.61184,0
1617674074.991567,37,0,0,0,0,0,0,0,0,0,1617674074.981105,6.035340309143066,9.857662200927734,-38.77479553222656,325.4847717285156,332.5131225585938,17.27206230163574,1048277.379211625,0.0090484619140625,-0.1185455322265625,-0.956787109375,1048277.358042625,-0.03068254515528679,-0.02178199402987957,-0.07133836299180984,1048277.376570625,17.39189147949219,44.59794616699219,-109.2782897949219,1048277.316948625,0.07699155348997519,0.01840830894824664,0.1471128580412595,-0.02986158058047295,-0.03136179596185684,0.06671850383281708,-0.0009965263307094574,-0.02089764177799225,0.03033632040023804,2,0.07307929379356626,0.01200057761691173,0.03905648116667576,0.9964887652714831,0.01820844225585461,-0.1465827971696854,-0.9890307784080505,5.907761573791504,9.960556030273438,-38.8795166015625,-1,2,1048276.993647625,1,2,1617674074.582817,1617673410.617,100,1.502572,0,0,64.93813,0,0,1617674074.582957,1048274.575977,0,-0.3619995,98.15968,1617674074.75529,587422867,1685438189,0,0,1,1617674073.754547,1,0.1,1617674074.981626,-6.33465,-27.64215,0
1617674075.030389,38,0,0,0,0,0,0,0,0,0,1617674075.021037,5.91591739654541,9.966945648193359,-38.68415069580078,325.7486267089844,332.7769775390625,17.27213859558105,1048277.412832625,0.0240936279296875,-0.1696014404296875,-0.96905517578125,1048277.391663625,0.1045972481369972,0.1294053941965103,-0.1238604262471199,1048277.376570625,17.39189147949219,44.59794616699219,-109.2782897949219,1048277.376721625,0.07553293536682561,0.01834037144578453,0.1464719514873859,0.03046515211462975,0.04982101172208786,-0.1202163323760033,-0.01001003012061119,0.03436128795146942,0.03050762414932251,2,0.07276996328995092,0.01190157359486576,0.03832519407996732,0.9965410902383315,0.01814296841621399,-0.1459487825632095,-0.9891257882118225,5.977795600891113,9.951526641845703,-38.82057952880859,-1,2,1048276.993647625,1,2,1617674074.582817,1617673410.617,100,1.502572,0,0,64.93813,0,0,1617674074.582957,1048274.575977,0,-0.3619995,98.15968,1617674074.75529,587422867,1685438189,0,0,1,1617674073.754547,1,0.1,1617674075.01604,-6.891928,-27.83779,0
1617674075.060637,39,0,0,0,0,0,0,0,0,0,1617674075.040907,6.01579761505127,9.952564239501953,-38.88665008544922,325.8158569335938,332.8442077636719,17.2722225189209,1048277.446456625,0.0472564697265625,-0.1737213134765625,-1.013824462890625,1048277.425287625,0.117258183658123,0.1978158801794052,-0.04970576986670494,1048277.436542625,17.48355102539062,44.46902465820312,-109.3358154296875,1048277.436494625,0.07021345318248129,0.02752657938375512,0.1519152702604291,0.06227856874465942,0.1563651412725449,-0.02875044569373131,0.01150542497634888,-0.02858473360538483,-0.009038031101226807,2,0.07534899956725,0.01637797698632517,0.03603874139383323,0.9963711434450315,0.02720612101256847,-0.1513316184282303,-0.9881085753440857,6.037806510925293,9.886306762695312,-38.89356231689453,-1,2,1048276.993647625,1,2,1617674074.582817,1617673410.617,100,1.502572,0,0,64.93813,0,0,1617674074.582957,1048274.575977,0,-0.3619995,98.15968,1617674074.75529,587422867,1685438189,0,0,1,1617674073.754547,1,0.1,1617674075.049228,-8.006486,-28.22974,0
1617674075.102031,40,0,0,0,0,0,0,0,0,0,1617674075.100721,6.26462459564209,9.792282104492188,-38.77438354492188,325.8694458007812,332.8977966308594,17.27228927612305,1048277.480077625,0.0516510009765625,-0.1565704345703125,-1.019287109375,1048277.458908625,-0.02154710330069065,-0.004318315535783768,-0.01857847720384598,1048277.436542625,17.48355102539062,44.46902465820312,-109.3358154296875,1048277.436494625,0.07021345318248129,0.02752657938375512,0.1519152702604291,0.06227856874465942,0.1563651412725449,-0.02875044569373131,0.01150542497634888,-0.02858473360538483,-0.009038031101226807,2,0.07534899956725,0.01637797698632517,0.03603874139383323,0.9963711434450315,0.02720612101256847,-0.1513316184282303,-0.9881085753440857,6.037806510925293,9.886306762695312,-38.89356231689453,-1,2,1048276.993647625,1,2,1617674074.582817,1617673410.617,100,1.502572,0,0,64.93813,0,0,1617674074.582957,1048274.575977,0,-0.3619995,98.15968,1617674074.75529,587422867,1685438189,0,0,1,1617674073.754547,1,0.1,1617674075.101987,-9.121044,-28.83122,0
1617674075.120299,41,0,0,0,0,0,0,0,0,0,1617674075.100721,6.26462459564209,9.792282104492188,-38.77438354492188,325.8694458007812,332.8977966308594,17.27228927612305,1048277.513698625,0.0382843017578125,-0.1605224609375,-0.9763641357421875,1048277.492529625,-0.06227908656001091,-0.1428964287042618,-0.01441009808331728,1048277.496514625,17.60284423828125,44.54995727539062,-109.4025268554688,1048277.496266625,0.06936813255208309,0.0247224192028006,0.1490627729152108,-0.06811840087175369,-0.1422094851732254,-0.01348070707172155,0.01924013905227184,-0.01080559194087982,-0.01172715425491333,2,0.07398448150156003,0.01490110854245771,0.03549806831898916,0.9965160247848921,0.02444577403366566,-0.1485113650560379,-0.9886084794998169,6.193964958190918,9.898586273193359,-38.90933990478516,-1,2,1048276.993647625,1,2,1617674074.582817,1617673410.617,100,1.502572,0,0,64.93813,0,0,1617674074.582957,1048274.575977,0,-0.3619995,98.15968,1617674074.75529,587422867,1685438189,0,0,1,1617674073.754547,1,0.1,1617674075.116175,-9.678323,-28.41211,0
1617674075.16125,42,0,0,0,0,0,0,0,0,0,1617674075.16054,6.061448097229004,9.842761993408203,-38.70421600341797,325.8830261230469,332.911376953125,17.27226257324219,1048277.547322625,0.0296630859375,-0.1622314453125,-0.96533203125,1048277.526153625,0.009030512534081936,-0.04359754547476768,0.0006711165769957006,1048277.496514625,17.60284423828125,44.54995727539062,-109.4025268554688,1048277.496266625,0.06936813255208309,0.0247224192028006,0.1490627729152108,-0.06811840087175369,-0.1422094851732254,-0.01348070707172155,0.01924013905227184,-0.01080559194087982,-0.01172715425491333,2,0.07398448150156003,0.01490110854245771,0.03549806831898916,0.9965160247848921,0.02444577403366566,-0.1485113650560379,-0.9886084794998169,6.193964958190918,9.898586273193359,-38.90933990478516,-1,2,1048276.993647625,1,2,1617674074.582817,1617673410.617,100,1.502572,0,0,64.93813,0,0,1617674074.582957,1048274.575977,0,-0.3619995,98.15968,1617674074.75529,587422867,1685438189,0,0,1,1617674073.754547,1,0.1,1617674075.161208,-10.79288,-29.27324,0
1617674075.190203,43,0,0,0,0,0,0,0,0,0,1617674075.180796,6.043395042419434,9.839138031005859,-38.71159362792969,325.8873901367188,332.9157409667969,17.27226066589355,1048277.580943625,0.0354461669921875,-0.154998779296875,-0.978851318359375,1048277.559774625,0.03455504775047302,0.05173083767294884,-0.00108284130692482,1048277.556485625,17.45677185058594,44.51031494140625,-109.1924896240234,1048277.556039625,0.06916139002820408,0.0232822541048976,0.1496049515036061,0.02223650552332401,0.0465678907930851,0.005085501354187727,0.007192295044660568,-0.01353484392166138,0.01938480138778687,2,0.0742816574925311,0.01418499246311995,0.03534422059102571,0.9965097595239207,0.02302011288702488,-0.1490475088357925,-0.9885620474815369,6.03164005279541,9.884593963623047,-38.73910522460938,-1,2,1048276.993647625,1,2,1617674074.582817,1617673410.617,100,1.502572,0,0,64.93813,0,0,1617674074.582957,1048274.575977,0,-0.3619995,98.15968,1617674074.75529,587422867,1685438189,0,0,1,1617674073.754547,1,0.1,1617674075.182714,-10.79288,-29.27324,0
1617674075.230034,44,0,0,0,0,0,0,0,0,0,1617674075.220169,6.056571006774902,9.874885559082031,-38.94695281982422,325.918212890625,332.9465637207031,17.27226257324219,1048277.614567625,0.0397186279296875,-0.1605987548828125,-0.9842071533203125,1048277.593395625,0.001301486860029399,0.04814009740948677,-0.01197996363043785,1048277.616454625,17.50473022460938,44.37471008300781,-109.3135833740234,1048277.556039625,0.06916139002820408,0.0232822541048976,0.1496049515036061,0.02223650552332401,0.0465678907930851,0.005085501354187727,0.007192295044660568,-0.01353484392166138,0.01938480138778687,2,0.0742816574925311,0.01418499246311995,0.03534422059102571,0.9965097595239207,0.02302011288702488,-0.1490475088357925,-0.9885620474815369,6.03164005279541,9.884593963623047,-38.73910522460938,-1,2,1048276.993647625,1,2,1617674074.582817,1617673410.617,100,1.502572,0,0,64.93813,0,0,1617674074.582957,1048274.575977,0,-0.3619995,98.15968,1617674074.75529,587422867,1685438189,0,0,1,1617674073.754547,1,0.1,1617674075.220368,-11.90744,-30.3301,0
1617674075.260176,45,0,0,0,0,0,0,0,0,0,1617674075.240531,6.097443580627441,9.771282196044922,-38.81320953369141,325.9241333007812,332.9524841308594,17.27226638793945,1048277.648188625,0.0405426025390625,-0.1683197021484375,-0.9989013671875,1048277.627019625,-0.02320598624646664,0.06076774373650551,0.00256462418474257,1048277.616454625,17.50473022460938,44.37471008300781,-109.3135833740234,1048277.615812625,0.0685074291453973,0.02681842807321664,0.1502194366323313,-0.02204834669828415,0.04667557403445244,-0.01183913089334965,0.01320539973676205,-0.01094360649585724,0.00417560338973999,2,0.07453044295817755,0.0159327996923717,0.03515298702649755,0.9964715394958013,0.02651322819292545,-0.1496551036834717,-0.9883826971054077,6.064560890197754,9.796726226806641,-38.89482116699219,-1,2,1048276.993647625,1,2,1617674074.582817,1617673410.617,100,1.502572,0,0,64.93813,0,0,1617674074.582957,1048274.575977,0,-0.3619995,98.15968,1617674074.75529,587422867,1685438189,0,0,1,1617674073.754547,1,0.1,1617674075.249495,-12.46472,-30.36189,0
1617674075.290053,46,0,0,0,0,0,0,0,0,0,1617674075.279984,6.097809791564941,9.836154937744141,-38.73126220703125,325.8576965332031,332.8860473632812,17.27227973937988,1048277.681810625,0.0380401611328125,-0.153106689453125,-1.004638671875,1048277.660640625,-0.04131841287016869,0.03834765404462814,0.03621606156229973,1048277.676422625,17.60444641113281,44.48626708984375,-109.1911163330078,1048277.615812625,0.0685074291453973,0.02681842807321664,0.1502194366323313,-0.02204834669828415,0.04667557403445244,-0.01183913089334965,0.01320539973676205,-0.01094360649585724,0.00417560338973999,2,0.07453044295817755,0.0159327996923717,0.03515298702649755,0.9964715394958013,0.02651322819292545,-0.1496551036834717,-0.9883826971054077,6.064560890197754,9.796726226806641,-38.89482116699219,-1,2,1048276.993647625,1,2,1617674074.582817,1617673410.617,100,1.502572,0,0,64.93813,0,0,1617674074.582957,1048274.575977,0,-0.3619995,98.15968,1617674074.75529,587422867,1685438189,0,0,1,1617674073.754547,1,0.1,1617674075.281999,-8.498389,-10.27534,0
1617674075.33051,47,0,0,0,0,0,0,0,0,0,1617674075.319973,6.126301765441895,9.884860992431641,-38.59891510009766,325.7787170410156,332.8070678710938,17.27229881286621,1048277.715433625,0.0321807861328125,-0.150146484375,-0.994476318359375,1048277.694264625,-0.0302622988820076,0.01572037301957607,0.03188096731901169,1048277.676422625,17.60444641113281,44.48626708984375,-109.1911163330078,1048277.675585625,0.06981458097615817,0.02957657632750136,0.1483900651324659,-0.05056370794773102,0.02604448981583118,0.03874453529715538,0.009037025272846222,-0.007274731993675232,-0.01291751861572266,2,0.07355903987099258,0.01732484354862266,0.03589587992589799,0.9964941203208457,0.02924727648496628,-0.1478460878133774,-0.9885778427124023,6.14763355255127,9.865509033203125,-38.74582672119141,-1,2,1048276.993647625,1,2,1617674074.582817,1617673410.617,100,1.502572,0,0,64.93813,0,0,1617674074.582957,1048274.575977,0,-0.3619995,98.15968,1617674074.75529,587422867,1685438189,0,0,1,1617674073.754547,1,0.1,1617674075.316056,-7.838018,-8.663501,0
1617674075.359861,48,0,0,0,0,0,0,0,0,0,1617674075.339749,6.132536888122559,9.989215850830078,-38.70797729492188,325.7470397949219,332.775390625,17.27231025695801,1048277.749054625,0.0343475341796875,-0.1526336669921875,-1.00665283203125,1048277.727885625,-0.00714792450889945,0.03756015747785568,0.0228832121938467,1048277.736398625,17.64811706542969,44.52352905273438,-109.1211395263672,1048277.735357625,0.07165847561836694,0.0313855094785649,0.1474103165708338,-0.01162423286587,0.01901124231517315,0.01965012401342392,0.001415416598320007,-0.004978403449058533,-0.01941955089569092,2,0.0730215319595212,0.01827698316748198,0.03687471983381319,0.9964808254982547,0.03104002960026264,-0.1468770354986191,-0.9886676073074341,6.188759803771973,9.93572998046875,-38.68913269042969,-1,2,1048276.993647625,1,2,1617674074.582817,1617673410.617,100,1.502572,0,0,64.93813,0,0,1617674074.582957,1048274.575977,0,-0.3619995,98.15968,1617674074.75529,587422867,1685438189,0,0,1,1617674073.754547,1,0.1,1617674075.34952,-7.170584,-8.876154,0
1617674075.390724,49,0,0,0,0,0,0,0,0,0,1617674075.379744,6.20297908782959,10.12717056274414,-38.71242523193359,325.7109680175781,332.7393188476562,17.27234840393066,1048277.782676625,0.033843994140625,-0.155975341796875,-1.006271362304688,1048277.761506625,0.01852068677544594,0.01684555970132351,0.01361008454114199,1048277.736398625,17.64811706542969,44.52352905273438,-109.1211395263672,1048277.735357625,0.07165847561836694,0.0313855094785649,0.1474103165708338,-0.01162423286587,0.01901124231517315,0.01965012401342392,0.001415416598320007,-0.004978403449058533,-0.01941955089569092,2,0.0730215319595212,0.01827698316748198,0.03687471983381319,0.9964808254982547,0.03104002960026264,-0.1468770354986191,-0.9886676073074341,6.188759803771973,9.93572998046875,-38.68913269042969,-1,2,1048276.993647625,1,2,1617674074.582817,1617673410.617,100,1.502572,0,0,64.93813,0,0,1617674074.582957,1048274.575977,0,-0.3619995,98.15968,1617674074.75529,587422867,1685438189,0,0,1,1617674073.754547,1,0.1,1617674075.34952,-7.170584,-8.876154,0
1617674075.429274,50,0,0,0,0,0,0,0,0,0,1617674075.419498,6.286787986755371,10.07893753051758,-38.61940765380859,325.6524963378906,332.6808471679688,17.27243804931641,1048277.816299625,0.0310516357421875,-0.1533660888671875,-1.00372314453125,1048277.795130625,-0.008784969337284565,-0.001622397685423493,0.02394581213593483,1048277.796366625,17.68222045898438,44.75283813476562,-109.3012542724609,1048277.795130625,0.07272576372342048,0.03176458356359695,0.1474763646101767,-0.02009560540318489,-0.006917350925505161,0.02585465088486671,0.0004305988550186157,-0.009368643164634705,-0.01532119512557983,2,0.0730375883452745,0.01850597311960295,0.03742075357916724,0.9964550442438408,0.03141449764370918,-0.1469423621892929,-0.9886460900306702,6.23656177520752,10.12529754638672,-38.86470031738281,-1,2,1048276.993647625,1,2,1617674074.582817,1617673410.617,100,1.502572,0,0,64.93813,0,0,1617674074.582957,1048274.575977,0,-0.3619995,98.15968,1617674074.75529,587422867,1685438189,0,0,1,1617674073.754547,1,0.1,1617674075.415925,-7.170584,-10.13087,0
1617674075.459224,51,0,0,0,0,0,0,0,0,0,1617674075.439762,6.314858436584473,9.937129974365234,-38.03972625732422,325.5995788574219,332.6279296875,17.27248954772949,1048277.849921625,0.02777099609375,-0.1485137939453125,-1.004241943359375,1048277.828751625,0.04311338067054749,0.02337989024817944,0.05386749282479286,1048277.796366625,17.68222045898438,44.75283813476562,-109.3012542724609,1048277.795130625,0.07272576372342048,0.03176458356359695,0.1474763646101767,-0.02009560540318489,-0.006917350925505161,0.02585465088486671,0.0004305988550186157,-0.009368643164634705,-0.01532119512557983,2,0.0730375883452745,0.01850597311960295,0.03742075357916724,0.9964550442438408,0.03141449764370918,-0.1469423621892929,-0.9886460900306702,6.23656177520752,10.12529754638672,-38.86470031738281,-1,2,1048276.993647625,1,2,1617674074.582817,1617673410.617,100,1.502572,0,0,64.93813,0,0,1617674074.582957,1048274.575977,0,-0.3619995,98.15968,1617674074.75529,587422867,1685438189,0,0,1,1617674073.754547,1,0.1,1617674075.451076,-7.170584,-10.50351,0
1617674075.499048,52,0,0,0,0,0,0,0,0,0,1617674075.479507,6.345280647277832,9.980472564697266,-38.59174346923828,325.4601745605469,332.488525390625,17.27259826660156,1048277.883544625,0.0331878662109375,-0.1341705322265625,-1.027496337890625,1048277.862373625,0.0945611298084259,0.06835216283798218,0.06238428130745888,1048277.856332625,17.74044799804688,44.59037780761719,-109.1483459472656,1048277.854903625,0.07566595356938735,0.03269443342775559,0.1492661933816849,0.07624168694019318,0.06744755059480667,0.06473428755998611,-0.004935599863529205,0.001816198229789734,-0.01976567506790161,2,0.07388394777076901,0.01910924024285977,0.03893160274072627,0.9963234456606527,0.03232512623071671,-0.1487125307321548,-0.9883520007133484,6.299519538879395,10.00083541870117,-38.68975067138672,-1,2,1048276.993647625,1,2,1617674074.582817,1617673410.617,100,1.502572,0,0,64.93813,0,0,1617674074.582957,1048274.575977,0,-0.3619995,98.15968,1617674074.75529,587422867,1685438189,0,0,1,1617674073.754547,1,0.1,1617674075.482749,-7.170584,-10.80774,0
1617674075.528892,53,0,0,0,0,0,0,0,0,0,1617674075.519174,6.435605049133301,10.00111389160156,-38.85525512695312,325.4224548339844,332.4508056640625,17.27274703979492,1048277.91716475,0.0290069580078125,-0.1405029296875,-1.006866455078125,1048277.895996625,0.1020616516470909,0.002020007697865367,0.006742058787494898,1048277.91629375,17.93362426757812,44.43153381347656,-109.2452697753906,1048277.854903625,0.07566595356938735,0.03269443342775559,0.1492661933816849,0.07624168694019318,0.06744755059480667,0.06473428755998611,-0.004935599863529205,0.001816198229789734,-0.01976567506790161,2,0.07388394777076901,0.01910924024285977,0.03893160274072627,0.9963234456606527,0.03232512623071671,-0.1487125307321548,-0.9883520007133484,6.299519538879395,10.00083541870117,-38.68975067138672,-1,2,1048276.993647625,1,2,1617674074.582817,1617673410.617,100,1.502572,0,0,64.93813,0,0,1617674074.582957,1048274.575977,0,-0.3619995,98.15968,1617674074.75529,587422867,1685438189,0,0,1,1617674073.754547,1,0.1,1617674075.520865,-7.170584,-11.48576,0
1617674075.558975,54,0,0,0,0,0,0,0,0,0,1617674075.539344,6.460755348205566,9.745529174804688,-38.73415374755859,325.4591369628906,332.4874877929688,17.27282905578613,1048277.95078675,0.0323333740234375,-0.170806884765625,-0.9905853271484375,1048277.92961675,0.07825272530317307,-0.05851044878363609,-0.03316887095570564,1048277.91629375,17.93362426757812,44.43153381347656,-109.2452697753906,1048277.91467475,0.07709327232774042,0.03349063715091599,0.154612355064291,0.08167000114917755,-0.03453681617975235,-0.02750013768672943,-0.004337392747402191,0.01657646894454956,-0.02262985706329346,2,0.07651765547401469,0.01965789686375403,0.03970881535653165,0.9960832274403288,0.03308495134115219,-0.1539970934391022,-0.987517237663269,6.479264259338379,9.873302459716797,-38.81985473632812,-1,2,1048276.993647625,1,2,1617674074.582817,1617673410.617,100,1.502572,0,0,64.93813,0,0,1617674074.582957,1048274.575977,0,-0.3619995,98.15968,1617674074.75529,587422867,1685438189,0,0,1,1617674073.754547,1,0.1,1617674075.549569,-7.170584,-11.79455,0
1617674075.598833,55,0,0,0,0,0,0,0,0,0,1617674075.57893,6.459925651550293,9.672828674316406,-38.84415435791016,325.517578125,332.5459289550781,17.27297782897949,1048277.98440975,0.02001953125,-0.1808624267578125,-0.9325714111328125,1048277.96324075,0.07963357865810394,-0.071337029337883,-0.01903947070240974,1048277.97626475,17.821044921875,44.45449829101562,-109.3896484375,1048277.97444775,0.07549108128949258,0.02916012013789232,0.1575110303958862,0.05621546134352684,-0.01834888011217117,-0.01067643985152245,-0.006562996655702591,-0.02288797497749329,0.04741209745407104,2,0.07806125833942287,0.01749257727219597,0.03876182768280234,0.9960411332152501,0.02879505977034569,-0.1568605303764343,-0.987200915813446,6.405648231506348,9.796298980712891,-38.91998291015625,-1,2,1048276.993647625,1,2,1617674074.582817,1617673410.617,100,1.502572,0,0,64.93813,0,0,1617674074.582957,1048275.525413,0,-0.3276367,98.15929,1617674074.75529,587422867,1685438189,0,0,1,1617674073.754547,1,0.1,1617674075.58276,-7.170584,-12.2014,0
1617674075.631092,56,0,0,0,0,0,0,0,0,0,1617674075.618701,6.353816032409668,9.684795379638672,-38.87918853759766,325.5043640136719,332.53271484375,17.27302360534668,1048278.01803175,0.0304718017578125,-0.17681884765625,-0.9810638427734375,1048277.99686175,0.02198013290762901,0.06704454869031906,0.01459625363349915,1048277.97626475,17.821044921875,44.45449829101562,-109.3896484375,1048277.97444775,0.07549108128949258,0.02916012013789232,0.1575110303958862,0.05621546134352684,-0.01834888011217117,-0.01067643985152245,-0.006562996655702591,-0.02288797497749329,0.04741209745407104,2,0.07806125833942287,0.01749257727219597,0.03876182768280234,0.9960411332152501,0.02879505977034569,-0.1568605303764343,-0.987200915813446,6.405648231506348,9.796298980712891,-38.91998291015625,-1,2,1048276.993647625,1,2,1617674074.582817,1617673410.617,100,1.502572,0,0,64.93813,0,0,1617674074.582957,1048275.525413,0,-0.3276367,98.15929,1617674074.75529,587422867,1685438189,0,0,1,1617674073.754547,1,0.1,1617674075.616064,-7.170584,-12.1302,0
1617674075.658743,57,0,0,0,0,0,0,0,0,0,1617674075.638874,6.369772911071777,9.741359710693359,-38.95595550537109,325.4752197265625,332.5035705566406,17.27303886413574,1048278.05165275,0.0274658203125,-0.1671600341796875,-0.9908447265625,1048278.03048375,0.04808869957923889,0.04038150981068611,0.02738288789987564,1048278.03622475,17.82223510742188,44.34854125976562,-109.3197784423828,1048278.03422075,0.07644787782076481,0.03160542333923385,0.1589393111340022,0.0302224438637495,0.03087091818451881,0.0318891704082489,0.002291180193424225,-0.01325303316116333,-0.0005089044570922852,2,0.07871617340741845,0.01877400335873522,0.03934281113316024,0.9959435607555159,0.03120186366140842,-0.1582709699869156,-0.9869025945663452,6.380841255187988,9.740001678466797,-38.90181732177734,-1,2,1048276.993647625,1,2,1617674074.582817,1617673410.617,100,1.502572,0,0,64.93813,0,0,1617674074.582957,1048275.525413,0,-0.3276367,98.15929,1617674074.75529,587422867,1685438189,0,0,1,1617674073.754547,1,0.1,1617674075.649086,-7.170584,-12.06363,0
1617674075.700485,58,0,0,0,0,0,0,0,0,0,1617674075.698547,6.381159782409668,9.562858581542969,-38.98871612548828,325.3887634277344,332.4171142578125,17.27309417724609,1048278.08527575,0.03106689453125,-0.1640472412109375,-0.985809326171875,1048278.06410675,0.01509106811136007,0.01095118466764688,0.01621438935399055,1048278.03622475,17.82223510742188,44.34854125976562,-109.3197784423828,1048278.03422075,0.07644787782076481,0.03160542333923385,0.1589393111340022,0.0302224438637495,0.03087091818451881,0.0318891704082489,0.002291180193424225,-0.01325303316116333,-0.0005089044570922852,2,0.07871617340741845,0.01877400335873522,0.03934281113316024,0.9959435607555159,0.03120186366140842,-0.1582709699869156,-0.9869025945663452,6.380841255187988,9.740001678466797,-38.90181732177734,-1,2,1048276.993647625,1,2,1617674074.582817,1617673410.617,100,1.502572,0,0,64.93813,0,0,1617674074.582957,1048275.525413,0,-0.3276367,98.15929,1617674074.75529,587422867,1685438189,0,0,1,1617674073.754547,1,0.1,1617674075.700432,-7.170584,-13.10609,0
1617674075.728092,59,0,0,0,0,0,0,0,0,0,1617674075.718398,6.492247581481934,9.463626861572266,-38.79949951171875,325.3502502441406,332.3786010742188,17.27311706542969,1048278.11889775,0.03460693359375,-0.165283203125,-0.99755859375,1048278.09772775,0.03308205306529999,0.03358352556824684,0.03233982995152473,1048278.09619175,17.815673828125,44.1395263671875,-109.3759307861328,1048278.09399275,0.07795696677915676,0.03220672093254419,0.1612916586695424,0.01767550408840179,0.03168005496263504,0.02951645664870739,-0.0007620789110660553,-0.005223989486694336,-0.000765383243560791,2,0.07986135565956186,0.01917698153041569,0.04013314575176402,0.9958131034338644,0.03178320452570915,-0.1605932414531708,-0.9865087866783142,6.379387855529785,9.5396728515625,-38.95130920410156,-1,2,1048276.993647625,1,2,1617674074.582817,1617673410.617,100,1.502572,0,0,64.93813,0,0,1617674074.582957,1048275.525413,0,-0.3276367,98.15929,1617674074.75529,587422867,1685438189,0,0,1,1617674073.754547,1,0.1,1617674075.715865,-7.170584,-13.10609,0
1617674075.767902,60,0,0,0,0,0,0,0,0,0,1617674075.758234,6.457749366760254,9.555889129638672,-38.98036193847656,325.2848205566406,332.3131713867188,17.27316284179688,1048278.15252075,0.030487060546875,-0.1607666015625,-0.9906768798828125,1048278.13134975,0.03485172241926193,-0.01774943619966507,0.02498018369078636,1048278.15615875,17.98698425292969,44.09953308105469,-109.3531188964844,1048278.09399275,0.07795696677915676,0.03220672093254419,0.1612916586695424,0.01767550408840179,0.03168005496263504,0.02951645664870739,-0.0007620789110660553,-0.005223989486694336,-0.000765383243560791,2,0.07986135565956186,0.01917698153041569,0.04013314575176402,0.9958131034338644,0.03178320452570915,-0.1605932414531708,-0.9865087866783142,6.379387855529785,9.5396728515625,-38.95130920410156,-1,2,1048276.993647625,1,2,1617674074.582817,1617673410.617,100,1.502572,0,0,64.93813,0,0,1617674074.582957,1048275.525413,0,-0.3276367,98.15929,1617674074.75529,587422867,1685438189,0,0,1,1617674073.754547,1,0.1,1617674075.759866,-7.170584,-14.45413,0
1617674075.797808,61,0,0,0,0,0,0,0,0,0,1617674075.778223,6.623137474060059,9.359241485595703,-38.86790466308594,325.2640380859375,332.2923889160156,17.2731876373291,1048278.18614175,0.0303802490234375,-0.163299560546875,-0.9918670654296875,1048278.16497275,-0.001437308033928275,-0.06214512884616852,0.01486736256629229,1048278.15615875,17.98698425292969,44.09953308105469,-109.3531188964844,1048278.15376575,0.0797147894703113,0.03172393264826394,0.1628342500329763,-0.01903387159109116,-0.03540754690766335,0.01721554063260555,-0.0008119679987430573,0.00134904682636261,-0.004401624202728271,2,0.08062246953141068,0.01903643112182858,0.04099878604144608,0.9957191322074179,0.03129903227090836,-0.1621156185865402,-0.9862752556800842,6.523739814758301,9.509078979492188,-38.9326171875,-1,2,1048276.993647625,1,2,1617674074.582817,1617673410.617,100,1.502572,0,0,64.93813,0,0,1617674074.582957,1048275.525413,0,-0.3276367,98.15929,1617674074.75529,587422867,1685438189,0,0,1,1617674073.754547,1,0.1,1617674075.782705,-7.170584,-15.42751,0
1617674075.827529,62,0,0,0,0,0,0,0,0,0,1617674075.818099,6.562901496887207,9.335556030273438,-38.96707916259766,325.1922302246094,332.2205810546875,17.27323722839355,1048278.21976375,0.0214691162109375,-0.1444244384765625,-0.9736175537109375,1048278.19859475,0.0896366760134697,-0.04609505832195282,0.03541178628802299,1048278.21612975,17.87828063964844,44.09748840332031,-109.3158721923828,1048278.15376575,0.0797147894703113,0.03172393264826394,0.1628342500329763,-0.01903387159109116,-0.03540754690766335,0.01721554063260555,-0.0008119679987430573,0.00134904682636261,-0.004401624202728271,2,0.08062246953141068,0.01903643112182858,0.04099878604144608,0.9957191322074179,0.03129903227090836,-0.1621156185865402,-0.9862752556800842,6.523739814758301,9.509078979492188,-38.9326171875,-1,2,1048276.993647625,1,2,1617674074.582817,1617673410.617,100,1.502572,0,0,64.93813,0,0,1617674074.582957,1048275.525413,0,-0.3276367,98.15929,1617674074.75529,587422867,1685438189,0,0,1,1617674073.754547,1,0.1,1617674075.822904,-7.170584,-17.28897,0
1617674075.870411,63,0,0,0,0,0,0,0,0,0,1617674075.858215,6.470158576965332,9.282444000244141,-38.84396362304688,325.2215270996094,332.2498779296875,17.27329063415527,1048278.25338675,0.0193328857421875,-0.15716552734375,-0.9606781005859375,1048278.23221775,0.07364758849143982,0.01476376596838236,-0.01903228089213371,1048278.21612975,17.87828063964844,44.09748840332031,-109.3158721923828,1048278.21353875,0.08130742633887601,0.02813999812322628,0.1651383317456736,0.09864705055952072,-0.0440160371363163,0.01393004134297371,-0.004529625177383423,0.01891152560710907,0.004529297351837158,2,0.08182920276998233,0.0173616914988513,0.04165947407503007,0.9956239276569642,0.02775350771844387,-0.1643887758255005,-0.9860051274299622,6.47590160369873,9.444908142089844,-38.90219116210938,-1,2,1048276.993647625,1,2,1617674074.582817,1617673410.617,100,1.502572,0,0,64.93813,0,0,1617674074.582957,1048275.525413,0,-0.3276367,98.15929,1617674074.75529,587422867,1685438189,0,0,1,1617674073.754547,1,0.1,1617674075.849387,-7.170584,-18.13021,0
1617674075.897615,64,0,0,0,0,0,0,0,0,0,1617674075.877761,6.482480049133301,9.246238708496094,-38.87471008300781,325.2767028808594,332.3050537109375,17.27331733703613,1048278.28700875,0.028228759765625,-0.1762237548828125,-0.9776763916015625,1048278.26583875,-0.06267882883548737,0.05047142878174782,-0.05240834504365921,1048278.27609775,17.85269165039062,43.99130249023438,-109.3757019042969,1048278.27331175,0.07956234604053,0.02955949190824469,0.1654097582192184,-0.08782193064689636,0.05575208365917206,-0.03890586644411087,-0.004936084151268005,-0.007035344839096069,0.01820766925811768,2,0.08195048645203286,0.01800216159862501,0.04085036827805894,0.9956360689331371,0.02915178798139095,-0.1646565049886703,-0.9859200716018677,6.434706687927246,9.343521118164062,-38.918701171875,-1,2,1048276.993647625,1,2,1617674074.582817,1617673410.617,100,1.502572,0,0,64.93813,0,0,1617674074.582957,1048275.525413,0,-0.3276367,98.15929,1617674074.75529,587422867,1685438189,0,0,1,1617674073.754547,1,0.1,1617674075.883336,-7.170584,-19.95772,0
1617674075.92984,65,0,0,0,0,0,0,0,0,0,1617674075.917601,6.430365562438965,9.347339630126953,-38.68515014648438,325.33056640625,332.3589172363281,17.27337455749512,1048278.32062975,0.0282135009765625,-0.1595458984375,-0.9736785888671875,1048278.29946075,-0.05402195453643799,0.0526360459625721,-0.02089782431721687,1048278.27609775,17.85269165039062,43.99130249023438,-109.3757019042969,1048278.27331175,0.07956234604053,0.02955949190824469,0.1654097582192184,-0.08782193064689636,0.05575208365917206,-0.03890586644411087,-0.004936084151268005,-0.007035344839096069,0.01820766925811768,2,0.08195048645203286,0.01800216159862501,0.04085036827805894,0.9956360689331371,0.02915178798139095,-0.1646565049886703,-0.9859200716018677,6.434706687927246,9.343521118164062,-38.918701171875,-1,2,1048276.993647625,1,2,1617674074.582817,1617673410.617,100,1.502572,0,0,64.93813,0,0,1617674074.582957,1048275.525413,0,-0.3276367,98.15929,1617674074.75529,587422867,1685438189,0,0,1,1617674073.754547,1,0.1,1617674075.91605,-7.170584,-20.84269,0
1617674075.967268,66,0,0,0,0,0,0,0,0,0,1617674075.958054,6.523968696594238,9.402729034423828,-38.69638824462891,325.3848876953125,332.4132385253906,17.27343368530273,1048278.35425275,0.0321502685546875,-0.156768798828125,-1.01214599609375,1048278.33308375,-0.02900874800980091,0.1007058396935463,-0.02782444097101688,1048278.33606375,17.9844970703125,44.00096130371094,-109.2838287353516,1048278.33308375,0.07830403900930566,0.03324308225462306,0.1611177504001318,-0.0403166189789772,0.09541159868240356,-0.02591662295162678,-0.003692720085382462,0.0004026889801025391,0.004111886024475098,2,0.07975053330554843,0.01970356959000289,0.04034616538371733,0.9958030812718022,0.03280649334192276,-0.1604215800762177,-0.9865032434463501,6.544693946838379,9.406398773193359,-38.82408142089844,-1,2,1048276.993647625,1,2,1617674074.582817,1617673410.617,100,1.502572,0,0,64.93813,0,0,1617674074.582957,1048275.525413,0,-0.3276367,98.15929,1617674074.75529,587422867,1685438189,0,0,1,1617674073.754547,1,0.1,1617674075.949287,-7.170584,-21.5905,0
1617674076.001497,67,0,0,0,0,0,0,0,0,0,1617674075.997347,6.636086463928223,9.397361755371094,-38.60526275634766,325.4950256347656,332.5233764648438,17.27349090576172,1048278.38787475,0.0254364013671875,-0.16937255859375,-0.97076416015625,1048278.36670575,-0.03714603558182716,0.001983788795769215,-0.05493701994419098,1048278.33606375,17.9844970703125,44.00096130371094,-109.2838287353516,1048278.33308375,0.07830403900930566,0.03324308225462306,0.1611177504001318,-0.0403166189789772,0.09541159868240356,-0.02591662295162678,-0.003692720085382462,0.0004026889801025391,0.004111886024475098,2,0.07975053330554843,0.01970356959000289,0.04034616538371733,0.9958030812718022,0.03280649334192276,-0.1604215800762177,-0.9865032434463501,6.544693946838379,9.406398773193359,-38.82408142089844,-1,2,1048276.993647625,1,2,1617674074.582817,1617673410.617,100,1.502572,0,0,64.93813,0,0,1617674074.582957,1048275.525413,0,-0.3276367,98.15929,1617674074.75529,587422867,1685438189,0,0,1,1617674073.754547,1,0.1,1617674076.001451,-7.170584,-12.81297,0
1617674076.036865,68,0,0,0,0,0,0,0,0,0,1617674076.017259,6.589232444763184,9.568344116210938,-38.61902618408203,325.521484375,332.5498352050781,17.27352142333984,1048278.42149775,0.040069580078125,-0.169342041015625,-1.019088745117188,1048278.40032675,-0.09378720819950104,0.06380481272935867,-0.02443024143576622,1048278.39603075,18.02696228027344,44.18484497070312,-109.1155548095703,1048278.39285675,0.0757863650307303,0.03489846605380894,0.1584326499230179,-0.1038045063614845,0.05813726410269737,-0.03573446720838547,-0.00906376913189888,-0.01421108841896057,0.01527112722396851,2,0.0784057158011249,0.02037859080817201,0.03913932085273153,0.9959444333596579,0.03445439413189888,-0.1577706784009933,-0.986874520778656,6.603096961975098,9.524990081787109,-38.65590667724609,-1,2,1048276.993647625,1,2,1617674074.582817,1617673410.617,100,1.502572,0,0,64.93813,0,0,1617674074.582957,1048275.525413,0,-0.3276367,98.15929,1617674074.75529,587422867,1685438189,0,0,1,1617674073.754547,1,0.1,1617674076.016171,-7.170584,-12.81297,0
1617674076.067209,69,0,0,0,0,0,0,0,0,0,1617674076.057502,6.60927677154541,9.664791107177734,-38.8753662109375,325.5055236816406,332.5338745117188,17.27358436584473,1048278.45511975,0.04248046875,-0.15179443359375,-1.021270751953125,1048278.43394975,-0.0210869088768959,-0.008235027082264423,0.0084877610206604,1048278.45600175,18.00572204589844,44.2796630859375,-109.33447265625,1048278.39285675,0.0757863650307303,0.03489846605380894,0.1584326499230179,-0.1038045063614845,0.05813726410269737,-0.03573446720838547,-0.00906376913189888,-0.01421108841896057,0.01527112722396851,2,0.0784057158011249,0.02037859080817201,0.03913932085273153,0.9959444333596579,0.03445439413189888,-0.1577706784009933,-0.986874520778656,6.603096961975098,9.524990081787109,-38.65590667724609,-1,2,1048276.993647625,1,2,1617674074.582817,1617673410.617,100,1.502572,0,0,64.93813,0,0,1617674074.582957,1048275.525413,0,-0.3276367,98.15929,1617674074.75529,587422867,1685438189,0,0,1,1617674073.754547,1,0.1,1617674076.061856,-7.170584,-14.75793,0
1617674076.096754,70,0,0,0,0,0,0,0,0,0,1617674076.076989,6.584591865539551,9.707252502441406,-38.79679107666016,325.492919921875,332.5212707519531,17.27362632751465,1048278.48874075,0.0400238037109375,-0.150177001953125,-1.021942138671875,1048278.46757175,-0.03601872175931931,-0.09127718210220337,0.005032042972743511,1048278.45600175,18.00572204589844,44.2796630859375,-109.33447265625,1048278.45262975,0.07584263708253139,0.03506276957453529,0.1549463685877491,-0.03249740600585938,-0.05898022651672363,0.01006321702152491,0.008119508624076843,0.0004727989435195923,-0.03489577770233154,2,0.07666555959381932,0.02039913276892392,0.03914851449397072,0.9960790734122866,0.03463561460375786,-0.1543271094560623,-0.9874125123023987,6.58027172088623,9.668937683105469,-38.88939666748047,-1,2,1048276.993647625,1,2,1617674074.582817,1617673410.617,100,1.502572,0,0,64.93813,0,0,1617674074.582957,1048275.525413,0,-0.3276367,98.15929,1617674074.75529,587422867,1685438189,0,0,1,1617674073.754547,1,0.1,1617674076.081854,-7.170584,-15.70852,0
1617674076.136954,71,0,0,0,0,0,0,0,0,0,1617674076.116832,6.492459297180176,9.593505859375,-38.86002349853516,325.4972839355469,332.525634765625,17.27378273010254,1048278.52236375,0.0221710205078125,-0.1568145751953125,-0.9814605712890625,1048278.50119475,-0.07768786698579788,-0.226505309343338,-0.01024864241480827,1048278.51597175,17.84455871582031,44.29072570800781,-109.3357391357422,1048278.51240175,0.07585431771238893,0.02576939207611243,0.1520177145574755,-0.1072688326239586,-0.2346104830503464,-0.01075639668852091,0.007504856213927269,-0.003687918186187744,-0.01080775260925293,2,0.07538764854299529,0.01571699671724363,0.03878312831695813,0.9962757761122741,0.02546938881278038,-0.1514328867197037,-0.9881393313407898,6.431729316711426,9.656562805175781,-38.88593292236328,-1,2,1048276.993647625,1,2,1617674074.582817,1617673410.617,100,1.502572,0,0,64.93813,0,0,1617674074.582957,1048275.525413,0,-0.3276367,98.15929,1617674074.75529,587422867,1685438189,0,0,1,1617674073.754547,1,0.1,1617674076.124093,-7.170584,-17.36267,0
1617674076.170583,72,0,0,0,0,0,0,0,0,0,1617674076.156692,6.103318214416504,9.885726928710938,-38.66923522949219,325.5518188476562,332.5801696777344,17.27394104003906,1048278.55598575,0.0003509521484375,-0.1639556884765625,-0.9605255126953125,1048278.53481575,-0.1222614645957947,-0.1980520933866501,-0.0365859754383564,1048278.51597175,17.84455871582031,44.29072570800781,-109.3357391357422,1048278.51240175,0.07585431771238893,0.02576939207611243,0.1520177145574755,-0.1072688326239586,-0.2346104830503464,-0.01075639668852091,0.007504856213927269,-0.003687918186187744,-0.01080775260925293,2,0.07538764854299529,0.01571699671724363,0.03878312831695813,0.9962757761122741,0.02546938881278038,-0.1514328867197037,-0.9881393313407898,6.431729316711426,9.656562805175781,-38.88593292236328,-1,2,1048276.993647625,1,2,1617674074.582817,1617673410.617,100,1.502572,0,0,64.93813,0,0,1617674074.582957,1048275.525413,0,-0.3276367,98.15929,1617674074.75529,587422867,1685438189,0,0,1,1617674073.754547,1,0.1,1617674076.149369,-7.170584,-18.04848,0
1617674076.19644,73,0,0,0,0,0,0,0,0,0,1617674076.176734,5.983630180358887,10.03744125366211,-38.70290374755859,325.5877380371094,332.6160888671875,17.27400779724121,1048278.58960675,-0.0005035400390625,-0.13214111328125,-0.9757843017578125,1048278.56843775,-0.1518505215644836,-0.07098336517810822,-0.03398140147328377,1048278.57594275,17.26864624023438,44.69706726074219,-109.1912994384766,1048278.57217475,0.07415927790373614,0.01715082142036799,0.1435854983114079,-0.1662472635507584,-0.0646166205406189,-0.03339681029319763,-0.02245139703154564,-0.01527830958366394,0.02667313814163208,2,0.07136207914739492,0.01120639352694938,0.03758898442089348,0.9966788779657321,0.01697349548339844,-0.1430926322937012,-0.9895637631416321,5.874909400939941,10.07360458374023,-38.73788452148438,-1,2,1048278.58140375,2,0,1617674076.170573,1617673410.617,100,1.502572,0,0,64.93813,0,0,1617674074.582957,1048275.525413,0,-0.3276367,98.15929,1617674074.75529,587422867,1685438189,0,0,1,1617674073.754547,1,0.1,1617674076.183599,-7.170584,-19.75506,0
1617674076.241782,74,0,0,0,0,0,0,0,0,0,1617674076.23654,5.674273490905762,10.54155349731445,-38.67300415039062,325.8532104492188,332.8815612792969,17.27411651611328,1048278.62322975,0.0120849609375,-0.098846435546875,-0.98980712890625,1048278.60206075,-0.1394234001636505,0.01293284259736538,-0.08426640927791595,1048278.57594275,17.26864624023438,44.69706726074219,-109.1912994384766,1048278.57217475,0.07415927790373614,0.01715082142036799,0.1435854983114079,-0.1662472635507584,-0.0646166205406189,-0.03339681029319763,-0.02245139703154564,-0.01527830958366394,0.02667313814163208,2,0.07136207914739492,0.01120639352694938,0.03758898442089348,0.9966788779657321,0.01697349548339844,-0.1430926322937012,-0.9895637631416321,5.874909400939941,10.07360458374023,-38.73788452148438,-1,2,1048278.58140375,2,0,1617674076.170573,1617673410.617,100,1.502572,0,0,64.93813,0,0,1617674074.582957,1048275.525413,0,-0.3276367,98.15929,1617674074.75529,587422867,1685438189,0,0,1,1617674073.754547,1,0.1,1617674076.216093,-7.170584,-20.45151,0
1617674076.26602,75,0,0,0,0,0,0,0,0,0,1617674076.256375,5.638348579406738,10.55251312255859,-38.53146362304688,326.0359191894531,333.0642700195312,17.27415466308594,1048278.65685175,0.01739501953125,-0.0971527099609375,-0.95458984375,1048278.63568275,-0.01271579507738352,-0.04339541122317314,-0.1596770137548447,1048278.63591175,17.0498046875,45.18080139160156,-109.0500335693359,1048278.63194775,0.06898832582816815,0.0171225397746881,0.1367521598043477,-0.03896903619170189,-0.04026279225945473,-0.15235935151577,-0.001855654641985893,0.0424390435218811,0.002542734146118164,2,0.06798510293269548,0.01089226320014807,0.03499004767682556,0.9970131215219308,0.01696185395121574,-0.13632632791996,-0.9905187487602234,5.630307197570801,10.56313705444336,-38.62831115722656,-1,2,1048278.58140375,2,0,1617674076.170573,1617673410.617,100,1.502572,0,0,64.93813,0,0,1617674074.582957,1048275.525413,0,-0.3276367,98.15929,1617674074.75529,587422867,1685438189,0,0,1,1617674073.754547,1,0.1,1617674076.248646,-7.170584,-21.2313,0
1617674076.305958,76,0,0,0,0,0,0,0,0,0,1617674076.296482,5.483025550842285,10.57530212402344,-38.64517211914062,326.4495239257812,333.4778747558594,17.27432060241699,1048278.69047475,0.0113677978515625,-0.1579437255859375,-0.886688232421875,1048278.66930375,0.07745803892612457,-0.04618267342448235,-0.1899257302284241,1048278.69587675,16.89747619628906,45.23614501953125,-109.1684875488281,1048278.63194775,0.06898832582816815,0.0171225397746881,0.1367521598043477,-0.03896903619170189,-0.04026279225945473,-0.15235935151577,-0.001855654641985893,0.0424390435218811,0.002542734146118164,2,0.06798510293269548,0.01089226320014807,0.03499004767682556,0.9970131215219308,0.01696185395121574,-0.13632632791996,-0.9905187487602234,5.630307197570801,10.56313705444336,-38.62831115722656,-1,2,1048278.58140375,2,0,1617674076.170573,1617673410.617,100,1.502572,0,0,64.93813,0,0,1617674074.582957,1048275.525413,0,-0.3276367,98.15929,1617674074.75529,587422867,1685438189,0,0,1,1617674073.754547,1,0.1,1617674076.301915,-8.842421,-23.54725,0
1617674076.335748,77,0,0,0,0,0,0,0,0,0,1617674076.316194,5.394011497497559,10.53582000732422,-38.60542297363281,326.5319213867188,333.5602722167969,17.27445793151855,1048278.72409675,0.014801025390625,-0.173248291015625,-0.92071533203125,1048278.70292675,-0.0496612973511219,0.1819202601909637,-0.0348392054438591,1048278.69587675,16.89747619628906,45.23614501953125,-109.1684875488281,1048278.69171975,0.05871111501637556,0.01526675457967842,0.1387526566376038,0.004158060066401958,0.08613955229520798,-0.1050009950995445,-0.003751646727323532,-0.01963582634925842,0.1035856604576111,2,0.06906529322544042,0.009646255315381141,0.02980879842729106,0.9971200733850052,0.01511944271624088,-0.1383078694343567,-0.9902738928794861,5.466900825500488,10.61233520507812,-38.70513153076172,-1,2,1048278.58140375,2,0,1617674076.170573,1617673410.617,100,1.502572,0,0,64.93813,0,0,1617674074.582957,1048275.525413,0,-0.3276367,98.15929,1617674074.75529,587422867,1685438189,0,0,1,1617674073.754547,1,0.1,1617674076.31612,-8.842421,-23.54725,0
1617674076.365537,78,0,0,0,0,0,0,0,0,0,1617674076.356237,5.527371406555176,10.70461654663086,-38.68145751953125,326.3332214355469,333.361572265625,17.27477836608887,1048278.75771775,0.052337646484375,-0.1105804443359375,-1.011734008789062,1048278.73654875,-0.3106958270072937,0.2875588238239288,0.1193253248929977,1048278.75584375,17.13984680175781,45.3089599609375,-108.9434814453125,1048278.69171975,0.05871111501637556,0.01526675457967842,0.1387526566376038,0.004158060066401958,0.08613955229520798,-0.1050009950995445,-0.003751646727323532,-0.01963582634925842,0.1035856604576111,2,0.06906529322544042,0.009646255315381141,0.02980879842729106,0.9971200733850052,0.01511944271624088,-0.1383078694343567,-0.9902738928794861,5.466900825500488,10.61233520507812,-38.70513153076172,-1,2,1048278.58140375,2,0,1617674076.170573,1617673410.617,100,1.502572,0,0,64.93813,0,0,1617674074.582957,1048275.525413,0,-0.3276367,98.15929,1617674074.75529,587422867,1685438189,0,0,1,1617674073.754547,1,0.1,1617674076.363314,-9.956978,-24.74075,0
1617674076.411199,79,0,0,0,0,0,0,0,0,0,1617674076.395851,5.908612251281738,11.19639205932617,-38.18477630615234,326.0293579101562,333.0577087402344,17.27519416809082,1048278.79134075,0.0683441162109375,-0.1017913818359375,-1.095901489257812,1048278.77017175,-0.5822756886482239,0.109479621052742,0.1049748882651329,1048278.75584375,17.13984680175781,45.3089599609375,-108.9434814453125,1048278.75149275,0.06211575376990058,0.02830307356089407,0.1247674565566749,-0.4483135044574738,0.2710541486740112,0.1410288065671921,0.01380606181919575,-0.003134690225124359,0.007332205772399902,2,0.06186838903256837,0.01605247001320809,0.03187117269653206,0.9974461982625954,0.02807931415736675,-0.1244440004229546,-0.9918292164802551,5.652911186218262,10.70122909545898,-38.55449676513672,-1,2,1048278.58140375,2,0,1617674076.170573,1617673410.617,100,1.502572,0,0,64.93813,0,0,1617674074.582957,1048275.525413,0,-0.3276367,98.15929,1617674074.75529,587422867,1685438189,0,0,1,1617674073.754547,1,0.1,1617674076.382796,-10.51426,-25.39582,0
1617674076.435386,80,0,0,0,0,0,0,0,0,0,1617674076.415653,5.91567325592041,11.62019729614258,-38.08711242675781,325.8986511230469,332.927001953125,17.27545166015625,1048278.82496275,0.045745849609375,-0.12286376953125,-1.048858642578125,1048278.80379275,-0.6995940208435059,-0.2651877403259277,0.1042952463030815,1048278.81580975,17.27587890625,46.51365661621094,-108.3966064453125,1048278.81126475,0.06959878835343264,0.02549571113788189,0.08767334153204639,-0.7024030089378357,-0.2943253815174103,0.1265570074319839,0.03449571505188942,-0.03649285435676575,-0.08166396617889404,2,0.04334945235108804,0.01425212330637881,0.03531441427161774,0.998333896849497,0.02539503388106823,-0.08756106346845627,-0.9958354234695435,5.860743522644043,11.82364273071289,-37.99411010742188,-1,2,1048278.58140375,2,0,1617674076.170573,1617673410.617,100,1.502572,0,0,64.93813,0,0,1617674074.582957,1048275.525413,0,-0.3276367,98.15929,1617674074.75529,587422867,1685438189,0,0,1,1617674073.754547,1,0.1,1617674076.423225,-11.62881,-26.75544,0
1617674076.471302,81,0,0,0,0,0,0,0,0,0,1617674076.455538,5.615180015563965,12.60445785522461,-37.4844970703125,325.5409851074219,332.5693359375,17.27596282958984,1048278.85858375,0.0137176513671875,-0.0938262939453125,-0.996429443359375,1048278.83741475,-0.5157235264778137,-0.2285162657499313,0.1519360095262527,1048278.81580975,17.27587890625,46.51365661621094,-108.3966064453125,1048278.81126475,0.06959878835343264,0.02549571113788189,0.08767334153204639,-0.7024030089378357,-0.2943253815174103,0.1265570074319839,0.03449571505188942,-0.03649285435676575,-0.08166396617889404,2,0.04334945235108804,0.01425212330637881,0.03531441427161774,0.998333896849497,0.02539503388106823,-0.08756106346845627,-0.9958354234695435,5.860743522644043,11.82364273071289,-37.99411010742188,-1,2,1048278.58140375,2,0,1617674076.170573,1617673410.617,100,1.502572,0,0,64.93813,0,0,1617674074.582957,1048275.525413,0,-0.3276367,98.15929,1617674074.75529,587422867,1685438189,0,0,1,1617674073.754547,1,0.1,1617674076.449386,-12.18609,-26.78461,0
1617674076.505516,82,0,0,0,0,0,0,0,0,0,1617674076.495582,5.489130973815918,13.25807571411133,-37.28200531005859,325.2723693847656,332.3007202148438,17.2764778137207,1048278.89220675,0.0023345947265625,-0.06842041015625,-1.00347900390625,1048278.87103775,-0.1398780047893524,0.07046697288751602,0.1037362515926361,1048278.87577775,16.85629272460938,47.85411071777344,-107.8373565673828,1048278.87103775,0.078652267055607,0.01516586005690421,0.05971713373928699,-0.1511933207511902,0.06517080962657928,0.1056468337774277,-0.006974791176617146,-0.01980134844779968,-0.005895137786865234,2,0.02953219669160196,0.008747328754916212,0.03952354942022274,0.9987437860687892,0.01513824611902237,-0.05968164652585983,-0.9981026649475098,5.423359870910645,13.18925857543945,-37.42899322509766,-1,2,1048278.58140375,2,0,1617674076.170573,1617673410.617,100,1.502572,0,0,64.93813,0,0,1617674074.582957,1048275.525413,0,-0.3276367,98.15929,1617674074.75529,587422867,1685438189,0,0,1,1617674073.754547,1,0.1,1617674076.481952,-12.74337,-27.31036,0
1617674076.53976,83,0,0,0,0,0,0,0,0,0,1617674076.535178,5.73188304901123,13.38799667358398,-37.17469787597656,325.2911682128906,332.3195190429688,17.27699089050293,1048278.925828667,0.0365142822265625,-0.0571136474609375,-1.027755737304688,1048278.90465875,0.05462383106350899,0.3091962039470673,-0.005578523501753807,1048278.87577775,16.85629272460938,47.85411071777344,-107.8373565673828,1048278.87103775,0.078652267055607,0.01516586005690421,0.05971713373928699,-0.1511933207511902,0.06517080962657928,0.1056468337774277,-0.006974791176617146,-0.01980134844779968,-0.005895137786865234,2,0.02953219669160196,0.008747328754916212,0.03952354942022274,0.9987437860687892,0.01513824611902237,-0.05968164652585983,-0.9981026649475098,5.423359870910645,13.18925857543945,-37.42899322509766,-1,2,1048278.90029175,1,2,1617674076.489461,1617673410.617,100,1.502572,0,0,64.93813,0,0,1617674074.582957,1048276.474929,0,-0.2721558,98.15863,1617674074.75529,587422867,1685438189,0,0,1,1617674073.754547,1,0.1,1617674076.51606,-13.85793,-27.91954,0
1617674076.574844,84,0,0,0,0,0,0,0,0,0,1617674076.555644,6.018031120300293,13.25811004638672,-36.97763824462891,325.3713684082031,332.3997192382812,17.27724647521973,1048278.959451667,0.0584259033203125,-0.04913330078125,-1.0833740234375,1048278.938280667,-0.006994792725890875,0.2334399223327637,-0.07883409410715103,1048278.935742667,17.47639465332031,47.90101623535156,-107.4625701904297,1048278.930810667,0.07923748368161414,0.03003985667345231,0.05961410211508186,-0.00698312371969223,0.2997218370437622,-0.06047491356730461,0.01057587936520576,0.003655377775430679,-0.03806960582733154,2,0.02918126487649854,0.01618121323815014,0.04003358597602491,0.9986409912493559,0.02998198382556438,-0.0595787987112999,-0.9977732300758362,5.95188045501709,13.31927871704102,-37.06622314453125,-1,2,1048278.90029175,1,2,1617674076.489461,1617673410.617,100,1.502572,0,0,64.93813,0,0,1617674074.582957,1048276.474929,0,-0.2721558,98.15863,1617674074.75529,587422867,1685438189,0,0,1,1617674073.754547,1,0.1,1617674076.549497,-14.41521,-28.51109,0
1617674076.604823,85,0,0,0,0,0,0,0,0,0,1617674076.595137,6.238430976867676,13.41880798339844,-37.34079742431641,325.6173095703125,332.6456604003906,17.27775955200195,1048278.993072667,0.032440185546875,-0.02264404296875,-1.023406982421875,1048278.971903667,-0.03481870144605637,-0.2104184925556183,-0.1147931590676308,1048278.995709667,17.55740356445312,48.11517333984375,-107.8615112304688,1048278.930810667,0.07923748368161414,0.03003985667345231,0.05961410211508186,-0.00698312371969223,0.2997218370437622,-0.06047491356730461,0.01057587936520576,0.003655377775430679,-0.03806960582733154,2,0.02918126487649854,0.01618121323815014,0.04003358597602491,0.9986409912493559,0.02998198382556438,-0.0595787987112999,-0.9977732300758362,5.95188045501709,13.31927871704102,-37.06622314453125,-1,2,1048278.90029175,1,2,1617674076.489461,1617673410.617,100,1.502572,0,0,64.93813,0,0,1617674074.582957,1048276.474929,0,-0.2721558,98.15863,1617674074.75529,587422867,1685438189,0,0,1,1617674073.754547,1,0.1,1617674076.601757,-16.08705,-30.14122,0
1617674076.634838,86,0,0,0,0,0,0,0,0,0,1617674076.615189,6.039992332458496,13.54476547241211,-37.24314880371094,325.8134460449219,332.841796875,17.27801513671875,1048279.026694667,0.016448974609375,-0.0429229736328125,-0.9427032470703125,1048279.005525667,-0.03376701846718788,-0.3054118454456329,-0.2072160392999649,1048278.995709667,17.55740356445312,48.11517333984375,-107.8615112304688,1048278.990582667,0.07308758580904334,0.02684187388658379,0.05730347076646249,-0.06532055884599686,-0.3562480509281158,-0.1557984352111816,0.007888628169894218,0.03067608550190926,-0.03659266233444214,2,0.0281359839453641,0.01445264206717807,0.03690158804342003,0.9988181685629504,0.02679459750652313,-0.05727211385965347,-0.9979989528656006,6.15400218963623,13.48125457763672,-37.39889526367188,-1,2,1048278.90029175,1,2,1617674076.489461,1617673410.617,100,1.502572,0,0,64.93813,0,0,1617674074.582957,1048276.474929,0,-0.2721558,98.15863,1617674074.75529,587422867,1685438189,0,0,1,1617674073.754547,1,0.1,1617674076.616201,-16.08705,-30.14122,0
1617674076.674679,87,0,0,0,0,0,0,0,0,0,1617674076.654852,5.603209495544434,13.71015930175781,-37.27835083007812,326.2683715820312,333.2967224121094,17.27853012084961,1048279.060317667,0.028167724609375,-0.09783935546875,-0.9857177734375,1048279.039148667,0.1991336047649384,0.06632602959871292,-0.1687647849321365,1048279.055685667,16.94639587402344,48.30589294433594,-107.7436676025391,1048279.050355667,0.06186161407255024,0.01900464843393339,0.0607496737558971,0.2849844992160797,0.1700233221054077,-0.09781527519226074,0.006513731554150581,-0.02192925289273262,0.04115742444992065,2,0.03006054113644073,0.01043243649714421,0.03119865864538185,0.9990066044422892,0.01896844804286957,-0.06071231514215469,-0.9979750514030457,5.536103248596191,13.70061492919922,-37.29682159423828,-1,2,1048278.90029175,1,2,1617674076.489461,1617673410.617,100,1.502572,0,0,64.93813,0,0,1617674074.582957,1048276.474929,0,-0.2721558,98.15863,1617674074.75529,587422867,1685438189,0,0,1,1617674073.754547,1,0.1,1617674076.662533,-17.2016,-28.44297,0
1617674076.705151,88,0,0,0,0,0,0,0,0,0,1617674076.694842,5.690598487854004,13.59452819824219,-37.40451049804688,326.2752380371094,333.3035888671875,17.2790412902832,1048279.093938667,0.0313720703125,-0.0682525634765625,-1.076553344726562,1048279.072769667,0.3868576884269714,0.2790302932262421,0.05867955833673477,1048279.055685667,16.94639587402344,48.30589294433594,-107.7436676025391,1048279.050355667,0.06186161407255024,0.01900464843393339,0.0607496737558971,0.2849844992160797,0.1700233221054077,-0.09781527519226074,0.006513731554150581,-0.02192925289273262,0.04115742444992065,2,0.03006054113644073,0.01043243649714421,0.03119865864538185,0.9990066044422892,0.01896844804286957,-0.06071231514215469,-0.9979750514030457,5.536103248596191,13.70061492919922,-37.29682159423828,-1,2,1048278.90029175,1,2,1617674076.489461,1617673410.617,100,1.502572,0,0,64.93813,0,0,1617674074.582957,1048276.474929,0,-0.2721558,98.15863,1617674074.75529,587422867,1685438189,0,0,1,1617674073.754547,1,0.1,1617674076.682873,-17.75888,-28.58105,0
1617674076.73429,89,0,0,0,0,0,0,0,0,0,1617674076.714644,5.966719627380371,13.265380859375,-37.29764556884766,326.1462707519531,333.1746215820312,17.27929878234863,1048279.127560667,0.01715087890625,-0.0306243896484375,-1.07745361328125,1048279.106391667,0.289681613445282,0.02115322276949883,0.1008259430527687,1048279.115657667,17.61636352539062,47.56253051757812,-107.5411376953125,1048279.110128667,0.06504777850692005,0.03004823011942197,0.08123844908049442,0.254452109336853,-0.03035921230912209,0.09152410924434662,-0.002539835870265961,0.0406370684504509,-0.1010837554931641,2,0.04009386583750198,0.01632356983728262,0.03309742206425842,0.9985141453920479,0.02994462288916111,-0.08114912360906601,-0.9962520599365234,6.118849754333496,13.04223251342773,-37.15742492675781,-1,2,1048278.90029175,1,2,1617674076.489461,1617673410.617,100,1.502572,0,0,64.93813,0,0,1617674074.582957,1048276.474929,0,-0.2721558,98.15863,1617674074.75529,587422867,1685438189,0,0,1,1617674073.754547,1,0.1,1617674076.716114,-18.87344,-28.97001,0
1617674076.77927,90,0,0,0,0,0,0,0,0,0,1617674076.77438,6.008219718933105,12.86151123046875,-37.87918090820312,325.9674072265625,332.9957580566406,17.28006553649902,1048279.161183667,0.0200958251953125,-0.062103271484375,-1.04864501953125,1048279.140014667,0.03384824469685555,-0.1266748607158661,0.0207726564258337,1048279.115657667,17.61636352539062,47.56253051757812,-107.5411376953125,1048279.110128667,0.06504777850692005,0.03004823011942197,0.08123844908049442,0.254452109336853,-0.03035921230912209,0.09152410924434662,-0.002539835870265961,0.0406370684504509,-0.1010837554931641,2,0.04009386583750198,0.01632356983728262,0.03309742206425842,0.9985141453920479,0.02994462288916111,-0.08114912360906601,-0.9962520599365234,6.118849754333496,13.04223251342773,-37.15742492675781,-1,2,1048278.90029175,1,2,1617674076.489461,1617673410.617,100,1.502572,0,0,64.93813,0,0,1617674074.582957,1048276.474929,0,-0.2721558,98.15863,1617674074.75529,587422867,1685438189,0,0,1,1617674073.754547,1,0.1,1617674076.749482,-19.43072,-28.44901,0
1617674076.804008,91,0,0,0,0,0,0,0,0,0,1617674076.794499,6.067605018615723,12.86342239379883,-37.67716217041016,325.8057250976562,332.8340759277344,17.28032302856445,1048279.194805667,0.01007080078125,-0.0524444580078125,-1.105865478515625,1048279.173635667,-0.003387274453416467,-0.02282888256013393,0.1335751116275787,1048279.175626667,17.41311645507812,47.46653747558594,-108.2063903808594,1048279.169900667,0.06830174019534781,0.02412991985818852,0.08477476734527023,-0.02771060168743134,-0.02488820999860764,0.1267957091331482,-0.0007712729275226593,0.02041853219270706,-0.07001286745071411,2,0.04193533247727642,0.01349354806611797,0.03462201879508753,0.9984291105265664,0.02404092997312546,-0.08467326313257217,-0.9961187243461609,5.985260963439941,12.85861206054688,-37.79885101318359,-1,2,1048278.90029175,1,2,1617674076.489461,1617673410.617,100,1.502572,0,0,64.93813,0,0,1617674074.582957,1048276.474929,0,-0.2721558,98.15863,1617674074.75529,587422867,1685438189,0,0,1,1617674073.754547,1,0.1,1617674076.782004,-19.988,-26.9896,0
1617674076.843664,92,0,0,0,0,0,0,0,0,0,1617674076.83408,6.072020530700684,12.70571517944336,-37.76212310791016,325.5720520019531,332.6004028320312,17.28083419799805,1048279.228428667,-0.0178985595703125,-0.0261688232421875,-1.046051025390625,1048279.207257667,0.1423318386077881,-0.2034561783075333,0.09870900213718414,1048279.235601667,17.42916870117188,47.24150085449219,-108.2357482910156,1048279.169900667,0.06830174019534781,0.02412991985818852,0.08477476734527023,-0.02771060168743134,-0.02488820999860764,0.1267957091331482,-0.0007712729275226593,0.02041853219270706,-0.07001286745071411,2,0.04193533247727642,0.01349354806611797,0.03462201879508753,0.9984291105265664,0.02404092997312546,-0.08467326313257217,-0.9961187243461609,5.985260963439941,12.85861206054688,-37.79885101318359,-1,2,1048278.90029175,1,2,1617674076.489461,1617673410.617,100,1.502572,0,0,64.93813,0,0,1617674074.582957,1048276.474929,0,-0.2721558,98.15863,1617674074.75529,587422867,1685438189,0,0,1,1617674073.754547,1,0.1,1617674076.816048,-21.10256,-27.57486,0
1617674076.873776,93,0,0,0,0,0,0,0,0,0,1617674076.854053,5.932419776916504,12.59133529663086,-37.71167755126953,325.6357421875,332.6640930175781,17.28109169006348,1048279.262049667,-0.0308990478515625,-0.06927490234375,-0.9720458984375,1048279.240880667,0.005179848056286573,-0.2745255529880524,-0.09131632745265961,1048279.235601667,17.42916870117188,47.24150085449219,-108.2357482910156,1048279.229673667,0.07453938324509371,0.01428922291026728,0.08941505975394644,0.05657925456762314,-0.2752441763877869,-0.02770368754863739,-0.03213021159172058,0.06312717497348785,-0.05014759302139282,2,0.044394517565223,0.008797708855026549,0.03754197196069586,0.998269597251485,0.0142316548153758,-0.08929596096277237,-0.9959034323692322,6.01490306854248,12.65328216552734,-37.78653717041016,-1,2,1048278.90029175,1,2,1617674076.489461,1617673410.617,100,1.502572,0,0,64.93813,0,0,1617674074.582957,1048276.474929,0,-0.2721558,98.15863,1617674074.75529,587422867,1685438189,0,0,1,1617674073.754547,1,0.1,1617674076.849621,-21.65984,-28.42837,0
1617674076.903498,94,0,0,0,0,0,0,0,0,0,1617674076.893915,5.281235694885254,12.53482055664062,-37.77177429199219,326.0692138671875,333.0975646972656,17.2814884185791,1048279.295671667,-0.020355224609375,-0.127838134765625,-0.9016876220703125,1048279.274501667,-0.07517144829034805,-0.2061025649309158,-0.2323741167783737,1048279.295570667,16.51693725585938,47.23051452636719,-108.1206665039062,1048279.229673667,0.07453938324509371,0.01428922291026728,0.08941505975394644,0.05657925456762314,-0.2752441763877869,-0.02770368754863739,-0.03213021159172058,0.06312717497348785,-0.05014759302139282,2,0.044394517565223,0.008797708855026549,0.03754197196069586,0.998269597251485,0.0142316548153758,-0.08929596096277237,-0.9959034323692322,6.01490306854248,12.65328216552734,-37.78653717041016,-1,2,1048278.90029175,1,2,1617674076.489461,1617673410.617,100,1.502572,0,0,64.93813,0,0,1617674074.582957,1048276.474929,0,-0.2721558,98.15863,1617674074.75529,587422867,1685438189,0,0,1,1617674073.754547,1,0.1,1617674076.901062,-22.77439,-28.98474,0
1617674076.951984,95,0,0,0,0,0,0,0,0,0,1617674076.933818,4.874571800231934,12.57986068725586,-37.51879119873047,326.5547180175781,333.5830688476562,17.28160667419434,1048279.329294667,-0.0161895751953125,-0.1719818115234375,-0.9224395751953125,1048279.308125667,0.01925651915371418,0.1355708837509155,-0.211994543671608,1048279.295570667,16.51693725585938,47.23051452636719,-108.1206665039062,1048279.289446667,0.06473695613104095,0.001076458776983288,0.08497167379383616,-0.06795590370893478,-0.06004440039396286,-0.239032968878746,-0.02302996814250946,-0.02713000774383545,0.08811211585998535,2,0.04243340094221084,0.001912010094678711,0.03235646702849981,0.9985733545286725,0.001072574756108224,-0.08486945927143097,-0.9963914752006531,5.137236595153809,12.59678649902344,-37.70695495605469,-1,2,1048278.90029175,1,2,1617674076.489461,1617673410.617,100,1.502572,0,0,64.93813,0,0,1617674074.582957,1048276.474929,0,-0.2721558,98.15863,1617674074.75529,587422867,1685438189,0,0,1,1617674073.754547,1,0.1,1617674076.916183,-23.13684,-27.25206,0
1617674076.973218,96,0,0,0,0,0,0,0,0,0,1617674076.953728,4.780627250671387,12.50554275512695,-37.61899566650391,326.7247619628906,333.7531127929688,17.28186225891113,1048279.362915667,0.003570556640625,-0.135650634765625,-0.944244384765625,1048279.341746667,0.0922955721616745,0.3594875931739807,-0.1405834853649139,1048279.355545667,16.36140441894531,47.01484680175781,-107.9453735351562,1048279.349218667,0.05379099956175287,0.01362546515176054,0.0851862319873803,0.0655004158616066,0.3736902177333832,-0.1413390636444092,-0.01853474229574203,-0.07139559835195541,0.06399989128112793,2,0.04238080809620812,0.00794909140825641,0.02715722394079784,0.998700759259232,0.01357563678175211,-0.0850832387804985,-0.9962813854217529,4.883490562438965,12.43416595458984,-37.53807067871094,-1,2,1048278.90029175,1,2,1617674076.489461,1617673410.617,100,1.502572,0,0,64.93813,0,0,1617674074.582957,1048276.474929,0,-0.2721558,98.15863,1617674074.75529,587422867,1685438189,0,0,1,1617674073.754547,1,0.1,1617674076.965769,-23.13684,-27.95145,0
1617674077.00995,97,0,0,0,0,0,0,0,0,0,1617674076.993459,5.137761116027832,12.33018112182617,-37.39099884033203,327.1746215820312,334.2029724121094,17.28237533569336,1048279.396537667,0.0308837890625,-0.1095733642578125,-0.930999755859375,1048279.375367667,-0.06183087825775146,0.2930630445480347,-0.2473376244306564,1048279.355545667,16.36140441894531,47.01484680175781,-107.9453735351562,1048279.349218667,0.05379099956175287,0.01362546515176054,0.0851862319873803,0.0655004158616066,0.3736902177333832,-0.1413390636444092,-0.01853474229574203,-0.07139559835195541,0.06399989128112793,2,0.04238080809620812,0.00794909140825641,0.02715722394079784,0.998700759259232,0.01357563678175211,-0.0850832387804985,-0.9962813854217529,4.883490562438965,12.43416595458984,-37.53807067871094,-1,2,1048278.90029175,1,2,1617674076.489461,1617673410.617,100,1.502572,0,0,64.93813,0,0,1617674074.582957,1048276.474929,0,-0.2721558,98.15863,1617674074.75529,587422867,1685438189,0,0,1,1617674073.754547,1,0.1,1617674076.982834,-23.13684,-28.04203,0
1617674077.043426,98,0,0,0,0,0,0,0,0,0,1617674077.033553,5.280770301818848,12.59483337402344,-37.33611297607422,327.8860168457031,334.9143676757812,17.28288650512695,1048279.430160667,0.05621337890625,-0.13232421875,-0.9624786376953125,1048279.408991667,-0.4294989109039307,0.2053678035736084,-0.3393194675445557,1048279.415518667,16.67085266113281,47.12895202636719,-107.8716125488281,1048279.408991667,0.0385899394473541,0.03134450991670157,0.07664430270805912,-0.4408150613307953,0.2000714242458344,-0.337408572435379,0.004183534532785416,-0.0441582202911377,0.0736924409866333,2,0.03799879606336015,0.01639630046600697,0.01987755175781819,0.9989454503265096,0.03124737367033958,-0.07656928896903992,-0.9965745210647583,5.228116035461426,12.49233245849609,-37.43827056884766,-1,2,1048278.90029175,1,2,1617674076.489461,1617673410.617,100,1.502572,0,0,64.93813,0,0,1617674074.582957,1048276.474929,0,-0.2721558,98.15863,1617674074.75529,587422867,1685438189,0,0,1,1617674073.754547,1,0.1,1617674077.019832,-23.13684,-29.09587,0
1617674077.080803,99,0,0,0,0,0,0,0,0,0,1617674077.073173,5.32053279876709,13.38826370239258,-37.23176574707031,328.2412109375,335.2695617675781,17.28339958190918,1048279.463781667,0.0653076171875,-0.047454833984375,-1.045333862304688,1048279.442612667,-0.544101893901825,0.1543935686349869,-0.1661194711923599,1048279.415518667,16.67085266113281,47.12895202636719,-107.8716125488281,1048279.408991667,0.0385899394473541,0.03134450991670157,0.07664430270805912,-0.4408150613307953,0.2000714242458344,-0.337408572435379,0.004183534532785416,-0.0441582202911377,0.0736924409866333,2,0.03799879606336015,0.01639630046600697,0.01987755175781819,0.9989454503265096,0.03124737367033958,-0.07656928896903992,-0.9965745210647583,5.228116035461426,12.49233245849609,-37.43827056884766,-1,2,1048278.90029175,1,2,1617674076.489461,1617673410.617,100,1.502572,0,0,64.93813,0,0,1617674074.582957,1048276.474929,0,-0.2721558,98.15863,1617674074.75529,587422867,1685438189,0,0,1,1617674073.754547,1,0.1,1617674077.04942,-23.13684,-29.7167,0
1617674077.112999,100,0,0,0,0,0,0,0,0,0,1617674077.093459,5.283961296081543,13.7979621887207,-36.88776397705078,328.4317626953125,335.4601135253906,17.28365516662598,1048279.497405667,0.0463409423828125,0.0164794921875,-1.0185546875,1048279.476233667,-0.2410799860954285,-0.0899709016084671,-0.1862348467111588,1048279.475491667,16.70904541015625,48.30473327636719,-107.4758605957031,1048279.468763667,0.02734936124542542,0.04001493228872813,0.04616934125163061,-0.3261121213436127,-0.04874922335147858,-0.1567178815603256,0.02382011339068413,0.01208010315895081,-0.0482824444770813,2,0.02280234609230495,0.02031450470941995,0.01412962529814565,0.9994337347091105,0.03996162489056587,-0.04615294188261032,-0.9981347322463989,5.285853385925293,13.60816955566406,-37.09197235107422,-1,2,1048278.90029175,1,2,1617674076.489461,1617673410.617,100,1.502572,0,0,64.93813,0,0,1617674074.582957,1048276.474929,0,-0.2721558,98.15863,1617674074.75529,587422867,1685438189,0,0,1,1617674073.754547,1,0.1,1617674077.081588,-22.6661,-29.99416,0
1617674077.14249,101,0,0,0,0,0,0,0,0,0,1617674077.132777,4.955086708068848,14.21909713745117,-36.946044921875,329.14111328125,336.1694641113281,17.28416633605957,1048279.531026667,0.0348968505859375,-0.0317535400390625,-0.9580841064453125,1048279.509857667,-0.02213193289935589,-0.1679016500711441,-0.3449555337429047,1048279.535465667,16.32365417480469,48.90254211425781,-107.5052490234375,1048279.468763667,0.02734936124542542,0.04001493228872813,0.04616934125163061,-0.3261121213436127,-0.04874922335147858,-0.1567178815603256,0.02382011339068413,0.01208010315895081,-0.0482824444770813,2,0.02280234609230495,0.02031450470941995,0.01412962529814565,0.9994337347091105,0.03996162489056587,-0.04615294188261032,-0.9981347322463989,5.285853385925293,13.60816955566406,-37.09197235107422,-1,2,1048278.90029175,1,2,1617674076.489461,1617673410.617,100,1.502572,0,0,64.93813,0,0,1617674074.582957,1048276.474929,0,-0.2721558,98.15863,1617674074.75529,587422867,1685438189,0,0,1,1617674073.754547,1,0.1,1617674077.116173,-22.6661,-29.65431,0
1617674077.172718,102,0,0,0,0,0,0,0,0,0,1617674077.152974,4.791169166564941,14.29265975952148,-36.97608947753906,329.5547485351562,336.5830993652344,17.28442192077637,1048279.564647667,0.05841064453125,-0.0770111083984375,-0.9589080810546875,1048279.543478667,0.1039612889289856,0.02084562741219997,-0.3493641316890717,1048279.535465667,16.32365417480469,48.90254211425781,-107.5052490234375,1048279.528536667,0.01048266558729764,0.03222979627523107,0.03916314486211322,0.03583481162786484,-0.07526250928640366,-0.3667550384998322,0.00152241438627243,0.01464755460619926,0.03719693422317505,2,0.01949306648826855,0.01621350324985978,0.005555140444692075,0.9996630849884923,0.03219950944185257,-0.03915313631296158,-0.99871426820755,4.90613842010498,14.27230072021484,-37.03167724609375,-1,2,1048278.90029175,1,2,1617674076.489461,1617673410.617,100,1.502572,0,0,64.93813,0,0,1617674074.582957,1048276.474929,0,-0.2721558,98.15863,1617674074.75529,587422867,1685438189,0,0,1,1617674073.754547,1,0.1,1617674077.149385,-22.6661,-26.99252,0
1617674077.212702,103,0,0,0,0,0,0,0,0,0,1617674077.192744,4.664919853210449,14.32736968994141,-37.09165191650391,330.1279602050781,337.1563110351562,17.28493499755859,1048279.598271667,0.0742340087890625,-0.0822906494140625,-1.035400390625,1048279.577102667,0.2430230379104614,0.1903491765260696,-0.1660334467887878,1048279.595443667,16.15760803222656,48.73236083984375,-107.5464782714844,1048279.588309667,-0.005548382911889662,0.03862234711250124,0.04767605423705418,0.2774389982223511,0.1815259903669357,-0.1094245687127113,0.03479538857936859,-0.03881352767348289,-0.0154309868812561,2,0.02388478631206921,0.01923829908287504,-0.002312616214538155,0.9995269780348439,0.03856886923313141,-0.04765799641609192,-0.9981188178062439,4.65970516204834,14.26739883422852,-37.13050842285156,-1,2,1048278.90029175,1,2,1617674076.489461,1617673410.617,100,1.502572,0,0,64.93813,0,0,1617674074.582957,1048276.474929,0,-0.2721558,98.15863,1617674074.75529,587422867,1685438189,0,0,1,1617674073.754547,1,0.1,1617674077.201638,-22.6661,-27.81421,0
1617674077.25008,104,0,0,0,0,0,0,0,0,0,1617674077.232793,4.759295463562012,13.90056610107422,-37.06409454345703,330.2999267578125,337.3282775878906,17.28544616699219,1048279.631892667,0.0591583251953125,-0.064666748046875,-1.070480346679688,1048279.610723667,0.3338818252086639,0.08646778017282486,-0.04270352050662041,1048279.595443667,16.15760803222656,48.73236083984375,-107.5464782714844,1048279.588309667,-0.005548382911889662,0.03862234711250124,0.04767605423705418,0.2774389982223511,0.1815259903669357,-0.1094245687127113,0.03479538857936859,-0.03881352767348289,-0.0154309868812561,2,0.02388478631206921,0.01923829908287504,-0.002312616214538155,0.9995269780348439,0.03856886923313141,-0.04765799641609192,-0.9981188178062439,4.65970516204834,14.26739883422852,-37.13050842285156,-1,2,1048278.90029175,1,2,1617674076.489461,1617673410.617,100,1.502572,0,0,64.93813,0,0,1617674074.582957,1048276.474929,0,-0.2721558,98.15863,1617674074.75529,587422867,1685438189,0,0,1,1617674073.754547,1,0.1,1617674077.216176,-22.6661,-28.37498,0
1617674077.272924,105,0,0,0,0,0,0,0,0,0,1617674077.25272,4.80707836151123,13.78181457519531,-37.37198638916016,330.35205078125,337.3804016113281,17.28570175170898,1048279.665513667,0.0346221923828125,-0.074554443359375,-1.031661987304688,1048279.644344667,0.2243939638137817,-0.2287399768829346,-0.04743516072630882,1048279.655415667,16.29121398925781,48.17881774902344,-107.846923828125,1048279.648081667,-0.009086908074857736,0.03884589438979413,0.06477973988839905,0.193843811750412,-0.2704134881496429,-0.0483255423605442,0.0114009715616703,0.0003881677985191345,-0.07622981071472168,2,0.03246595834864867,0.01926423026316527,-0.003911248019337343,0.9992795523415403,0.0387546680867672,-0.06473444402217865,-0.9971497058868408,4.798298835754395,13.72570037841797,-37.44971466064453,-1,2,1048278.90029175,1,2,1617674076.489461,1617673410.617,100,1.502572,0,0,64.93813,0,0,1617674074.582957,1048276.474929,0,-0.2721558,98.15863,1617674074.75529,587422867,1685438189,0,0,1,1617674073.754547,1,0.1,1617674077.261044,-22.6661,-29.43973,0
1617674077.326501,106,0,0,0,0,0,0,0,0,0,1617674077.312425,4.572218894958496,13.34580230712891,-37.52619171142578,330.4853210449219,337.513671875,17.28647041320801,1048279.699137667,0.0008697509765625,-0.0826416015625,-0.9778594970703125,1048279.677968667,0.01160791981965303,-0.3481750190258026,-0.03215740248560905,1048279.655415667,16.29121398925781,48.17881774902344,-107.846923828125,1048279.648081667,-0.009086908074857736,0.03884589438979413,0.06477973988839905,0.193843811750412,-0.2704134881496429,-0.0483255423605442,0.0114009715616703,0.0003881677985191345,-0.07622981071472168,2,0.03246595834864867,0.01926423026316527,-0.003911248019337343,0.9992795523415403,0.0387546680867672,-0.06473444402217865,-0.9971497058868408,4.798298835754395,13.72570037841797,-37.44971466064453,-1,2,1048278.90029175,1,2,1617674076.489461,1617673410.617,100,1.502572,0,0,64.93813,0,0,1617674074.582957,1048276.474929,0,-0.2721558,98.15863,1617674074.75529,587422867,1685438189,0,0,1,1617674073.754547,1,0.1,1617674077.326458,-22.6661,-27.80603,0
1617674077.342542,107,0,0,0,0,0,0,0,0,0,1617674077.332508,4.192863464355469,13.3102912902832,-37.47843933105469,330.5112915039062,337.5396423339844,17.2867259979248,1048279.732758667,0.005706787109375,-0.0709381103515625,-0.957611083984375,1048279.711589667,-0.01303377654403448,-0.2898494005203247,-0.02516181208193302,1048279.715392667,15.55448913574219,47.90519714355469,-107.8971710205078,1048279.707854667,-0.01126153014478664,0.01938697518535981,0.06658358192674153,-0.03151101246476173,-0.298845648765564,-0.02556563541293144,-0.02250137366354465,-0.01563414931297302,0.0215224027633667,2,0.03333809967844378,0.009500396894739716,-0.005304706928998759,0.9993849200044782,0.01934280432760715,-0.06653439253568649,-0.9975966215133667,4.382296562194824,13.34591293334961,-37.5306396484375,-1,2,1048278.90029175,1,2,1617674076.489461,1617673410.617,100,1.502572,0,0,64.93813,0,0,1617674074.582957,1048276.474929,0,-0.2721558,98.15863,1617674074.75529,587422867,1685438189,0,0,1,1617674073.754547,1,0.1,1617674077.326458,-22.6661,-27.80603,0
1617674077.382162,108,0,0,0,0,0,0,0,0,0,1617674077.372341,3.741457939147949,13.30753707885742,-37.50898742675781,330.5468139648438,337.5751647949219,17.2872371673584,1048279.766381667,0.0151214599609375,-0.055145263671875,-0.9474029541015625,1048279.745210667,0.005461877211928368,-0.1868580281734467,-0.0110806142911315,1048279.715392667,15.55448913574219,47.90519714355469,-107.8971710205078,1048279.707854667,-0.01126153014478664,0.01938697518535981,0.06658358192674153,-0.03151101246476173,-0.298845648765564,-0.02556563541293144,-0.02250137366354465,-0.01563414931297302,0.0215224027633667,2,0.03333809967844378,0.009500396894739716,-0.005304706928998759,0.9993849200044782,0.01934280432760715,-0.06653439253568649,-0.9975966215133667,4.382296562194824,13.34591293334961,-37.5306396484375,-1,2,1048278.90029175,1,2,1617674076.489461,1617673410.617,100,1.502572,0,0,64.93813,0,0,1617674074.582957,1048276.474929,0,-0.2721558,98.15863,1617674074.75529,587422867,1685438189,0,0,1,1617674073.754547,1,0.1,1617674077.382126,-22.6661,-28.73641,0
1617674077.412048,109,0,0,0,0,0,0,0,0,0,1617674077.392278,3.568831443786621,13.43936920166016,-37.55872344970703,330.5807495117188,337.6091003417969,17.2874927520752,1048279.800003667,0.0061492919921875,-0.0808258056640625,-0.9378204345703125,1048279.778834667,-0.1337149143218994,-0.1356164216995239,-0.02681137435138226,1048279.775367667,14.98820495605469,48.07048034667969,-108.0118408203125,1048279.767626667,-0.01237940248779817,0.005526045699563811,0.06557628021989975,-0.07927194982767105,-0.187475398182869,-0.0358659103512764,0.009607318788766861,0.01038406044244766,0.05043244361877441,2,0.03279860519770986,0.00255857098571767,-0.006095734935073593,0.9994401228302369,0.005514140240848064,-0.06552929431200027,-0.9978353977203369,3.613110542297363,13.38397979736328,-37.52449035644531,-1,2,1048278.90029175,1,2,1617674076.489461,1617673410.617,100,1.502572,0,0,64.93813,0,0,1617674074.582957,1048276.474929,0,-0.2721558,98.15863,1617674074.75529,587422867,1685438189,0,0,1,1617674073.754547,1,0.1,1617674077.382126,-22.6661,-28.73641,0
1617674077.441694,110,0,0,0,0,0,0,0,0,0,1617674077.432056,3.255138397216797,13.72413635253906,-37.58272552490234,330.4839782714844,337.5123291015625,17.28800392150879,1048279.833624667,0.0033416748046875,-0.0439910888671875,-1.013320922851562,1048279.812455667,-0.2467735707759857,0.1511301249265671,0.06556915491819382,1048279.775367667,14.98820495605469,48.07048034667969,-108.0118408203125,1048279.767626667,-0.01237940248779817,0.005526045699563811,0.06557628021989975,-0.07927194982767105,-0.187475398182869,-0.0358659103512764,0.009607318788766861,0.01038406044244766,0.05043244361877441,2,0.03279860519770986,0.00255857098571767,-0.006095734935073593,0.9994401228302369,0.005514140240848064,-0.06552929431200027,-0.9978353977203369,3.613110542297363,13.38397979736328,-37.52449035644531,-1,2,1048278.90029175,1,2,1617674076.489461,1617673410.617,100,1.502572,0,0,64.93813,0,0,1617674074.582957,1048276.474929,0,-0.2721558,98.15863,1617674074.75529,587422867,1685438189,0,0,1,1617674073.754547,1,0.1,1617674077.416055,-22.6661,-29.3138,0
1617674077.491998,111,0,0,0,0,0,0,0,0,0,1617674077.471729,3.315890312194824,14.03915405273438,-37.23837280273438,330.4478149414062,337.4761657714844,17.28832054138184,1048279.867247667,0.0283966064453125,-0.0236968994140625,-1.05303955078125,1048279.846078667,-0.109022356569767,0.2643235325813293,0.004983573220670223,1048279.835344667,14.60844421386719,48.48393249511719,-107.7617340087891,1048279.827399667,-0.01082288487736454,0.0064016172324581,0.05327517914846863,-0.209742546081543,0.238388791680336,0.05196191370487213,-0.005980503279715776,0.001736346632242203,0.007532954216003418,2,0.02665122603029933,0.003055491303843945,-0.005324217865830927,0.999626012218187,0.006392491050064564,-0.05324998125433922,-0.9985607266426086,3.218544960021973,13.81807327270508,-37.48112487792969,-1,2,1048278.90029175,1,2,1617674076.489461,1617673410.617,100,1.502572,0,0,64.93813,0,0,1617674074.582957,1048277.424334,0,-0.2219543,98.15804,1617674074.75529,587422867,1685438189,0,0,1,1617674073.754547,1,0.1,1617674077.449528,-22.6661,-29.02983,0
1617674077.511513,112,0,0,0,0,0,0,0,0,0,1617674077.491668,3.393505096435547,14.19566345214844,-37.29348754882812,330.5063171386719,337.53466796875,17.2883358001709,1048279.900869667,0.052703857421875,-0.0417938232421875,-1.05780029296875,1048279.879700667,-0.06198720261454582,0.2574139535427094,-0.06534012407064438,1048279.895326667,14.99565124511719,48.8341064453125,-107.8842620849609,1048279.887172667,-0.01183933941380125,0.02150790343648877,0.04799651245143401,-0.06644805520772934,0.2370536178350449,-0.07162446528673172,0.0197630263864994,0.01643820852041245,-0.05790114402770996,2,0.02405778729476999,0.01060842160300844,-0.005659547128514131,0.9996381572002621,0.02148147858679295,-0.04797808825969696,-0.9986173510551453,3.415377616882324,14.27754974365234,-37.43361663818359,-1,2,1048278.90029175,1,2,1617674076.489461,1617673410.617,100,1.502572,0,0,64.93813,0,0,1617674074.582957,1048277.424334,0,-0.2219543,98.15804,1617674074.75529,587422867,1685438189,0,0,1,1617674073.754547,1,0.1,1617674077.504761,-22.6661,-29.98575,0
1617674077.541239,113,0,0,0,0,0,0,0,0,0,1617674077.531771,3.636139869689941,14.18624496459961,-37.22063446044922,330.6783142089844,337.7066650390625,17.28823852539062,1048279.9344915,0.052093505859375,-0.0648345947265625,-1.012222290039062,1048279.9133225,-0.03366901353001595,0.1399278044700623,-0.0835135355591774,1048279.895326667,14.99565124511719,48.8341064453125,-107.8842620849609,1048279.887172667,-0.01183933941380125,0.02150790343648877,0.04799651245143401,-0.06644805520772934,0.2370536178350449,-0.07162446528673172,0.0197630263864994,0.01643820852041245,-0.05790114402770996,2,0.02405778729476999,0.01060842160300844,-0.005659547128514131,0.9996381572002621,0.02148147858679295,-0.04797808825969696,-0.9986173510551453,3.415377616882324,14.27754974365234,-37.43361663818359,-1,2,1048278.90029175,1,2,1617674076.489461,1617673410.617,100,1.502572,0,0,64.93813,0,0,1617674074.582957,1048277.424334,0,-0.2219543,98.15804,1617674074.75529,587422867,1685438189,0,0,1,1617674073.754547,1,0.1,1617674077.516145,-22.6661,-30.21514,0
1617674077.58131,114,0,0,0,0,0,0,0,0,0,1617674077.571776,3.738626480102539,14.42052459716797,-37.16053771972656,330.8118896484375,337.8402404785156,17.28825378417969,1048279.9681145,0.0461578369140625,-0.0793304443359375,-0.98883056640625,1048279.9469455,-0.04824502766132355,0.05116811394691467,-0.05701082199811935,1048279.9553015,15.18606567382812,49.04318237304688,-107.6094512939453,1048279.9469455,-0.01635597748490239,0.02849474313035871,0.04443681088528631,-0.05956282466650009,0.0458713062107563,-0.05509931594133377,0.02082312479615211,-0.0286673791706562,0.0008655786514282227,2,0.02233006044152169,0.01406123029556407,-0.007858542735970198,0.999620883843328,0.02846276201307774,-0.04442218691110611,-0.9986072778701782,3.712359428405762,14.38639450073242,-37.13687133789062,-1,2,1048278.90029175,1,2,1617674076.489461,1617673410.617,100,1.502572,0,0,64.93813,0,0,1617674074.582957,1048277.424334,0,-0.2219543,98.15804,1617674074.75529,587422867,1685438189,0,0,1,1617674073.754547,1,0.1,1617674077.561645,-22.6661,-30.78378,0
