loggingTime,loggingSample,locationTimestamp_since1970,locationLatitude,locationLongitude,locationAltitude,locationSpeed,locationCourse,locationVerticalAccuracy,locationHorizontalAccuracy,locationFloor,locationHeadingTimestamp_since1970,locationHeadingX,locationHeadingY,locationHeadingZ,locationTrueHeading,locationMagneticHeading,locationHeadingAccuracy,accelerometerTimestamp_sinceReboot,accelerometerAccelerationX,accelerometerAccelerationY,accelerometerAccelerationZ,gyroTimestamp_sinceReboot,gyroRotationX,gyroRotationY,gyroRotationZ,magnetometerTimestamp_sinceReboot,magnetometerX,magnetometerY,magnetometerZ,motionTimestamp_sinceReboot,motionYaw,motionRoll,motionPitch,motionRotationRateX,motionRotationRateY,motionRotationRateZ,motionUserAccelerationX,motionUserAccelerationY,motionUserAccelerationZ,motionAttitudeReferenceFrame,motionQuaternionX,motionQuaternionY,motionQuaternionZ,motionQuaternionW,motionGravityX,motionGravityY,motionGravityZ,motionMagneticFieldX,motionMagneticFieldY,motionMagneticFieldZ,motionHeading,motionMagneticFieldCalibrationAccuracy,activityTimestamp_sinceReboot,activity,activityActivityConfidence,activityActivityStartDate,pedometerStartDate,pedometerNumberofSteps,pedometerAverageActivePace,pedometerCurrentPace,pedometerCurrentCadence,pedometerDistance,pedometerFloorAscended,pedometerFloorDescended,pedometerEndDate,altimeterTimestamp_sinceReboot,altimeterReset,altimeterRelativeAltitude,altimeterPressure,IP_Timestamp_since1970,IP_en0,IP_pdp_ip0,deviceID,deviceOrientationTimeStamp_since1970,deviceOrientation,batteryTimeStamp_since1970,batteryState,batteryLevel,avAudioRecorder_Timestamp_since1970,avAudioRecorderPeakPower,avAudioRecorderAveragePower,label
1617673452.021444,1,0,0,0,0,0,0,0,0,0,1617673452.006074,1.223979949951172,16.71462631225586,-40.42752838134766,349.6541748046875,356.6837463378906,15.82578372955322,1047654.398287167,0.008331298828125,-0.183349609375,-0.912384033203125,1047654.377116167,-0.09649964421987534,0.09738993644714355,-0.02589551359415054,1047654.356281167,12.5220947265625,51.51541137695312,-110.8355865478516,1047654.369646167,-0.3462927310014897,0.0122941336572953,0.1654173288533306,-0.06661699712276459,0.08428694307804108,-0.04597968980669975,0.004948563873767853,-0.02471283078193665,0.006462574005126953,2,0.08243298632082859,-0.008198333561984315,-0.1711901101265584,0.9817491606800203,0.01212600991129875,-0.1646639704704285,-0.9862751960754395,1.187085151672363,16.71957397460938,-40.44544219970703,-1,2,1047654.398757167,1,2,1617673451.987926,0,0,0,0,0,0,0,0,0,1047651.950211,0,-0.1928711,98.1577,0,0,0,0,0,1,1617673452.00491,1,0.12,1617673451.982472,-22.89496,-29.1501,0
1617673452.036786,2,0,0,0,0,0,0,0,0,0,1617673452.026577,1.562439918518066,16.63119506835938,-40.3267822265625,349.6004638671875,356.6300354003906,15.82608604431152,1047654.431908167,0.0241851806640625,-0.18115234375,-0.916473388671875,1047654.410739167,0.1146549433469772,0.6082952618598938,0.05017821490764618,1047654.416272167,12.91912841796875,51.22093200683594,-110.6675415039062,1047654.369646167,-0.3462927310014897,0.0122941336572953,0.1654173288533306,-0.06661699712276459,0.08428694307804108,-0.04597968980669975,0.004948563873767853,-0.02471283078193665,0.006462574005126953,2,0.08243298632082859,-0.008198333561984315,-0.1711901101265584,0.9817491606800203,0.01212600991129875,-0.1646639704704285,-0.9862751960754395,1.187085151672363,16.71957397460938,-40.44544219970703,-1,2,1047654.398757167,1,2,1617673451.987926,0,0,0,0,0,0,0,0,0,1047651.950211,0,-0.1928711,98.1577,0,0,0,0,0,1,1617673452.00491,1,0.12,1617673452.022432,-22.89496,-29.28376,0
1617673452.066085,3,0,0,0,0,0,0,0,0,0,1617673452.045853,2.079318046569824,16.62445068359375,-40.38945007324219,349.3027648925781,356.3323364257812,15.82638835906982,1047654.465530167,0.0685272216796875,-0.1962432861328125,-0.9818878173828125,1047654.444360167,0.3355526924133301,0.7864125370979309,0.08332151919603348,1047654.416272167,12.91912841796875,51.22093200683594,-110.6675415039062,1047654.429418167,-0.3445769259398861,0.03683010107923412,0.1672900513327901,0.274952232837677,0.741213858127594,0.05131982639431953,-0.01608984917402267,-0.01194065809249878,0.073902428150177,2,0.08544246439963775,0.003757223608874073,-0.1692933717134568,0.9818478099468639,0.03630772978067398,-0.1665108501911163,-0.985370934009552,1.837254524230957,16.58258056640625,-40.31845092773438,-1,2,1047654.398757167,1,2,1617673451.987926,0,0,0,0,0,0,0,0,0,1047651.950211,0,-0.1928711,98.1577,0,0,0,0,0,1,1617673452.00491,1,0.12,1617673452.044465,-22.89496,-29.71419,0
1617673452.118201,4,0,0,0,0,0,0,0,0,0,1617673452.10563,3.472687721252441,16.00811386108398,-40.96605682373047,348.8809204101562,355.9104919433594,15.82729339599609,1047654.499153167,0.1015472412109375,-0.18084716796875,-1.037384033203125,1047654.477984167,0.2195094525814056,0.4892988502979279,0.08600412309169769,1047654.476271167,14.51506042480469,50.81008911132812,-111.1122283935547,1047654.489191167,-0.340227567626631,0.07502489138468582,0.1836241289122021,0.1078042685985565,0.3041001260280609,0.06608864665031433,0.01999451965093613,-0.002311989665031433,-0.05358916521072388,2,0.09661858367936391,0.02129609616252484,-0.165074045225533,0.9813062070461451,0.07369442284107208,-0.18259397149086,-0.9804226756095886,3.227782249450684,16.17109298706055,-40.83428955078125,-1,2,1047654.398757167,1,2,1617673451.987926,0,0,0,0,0,0,0,0,0,1047651.950211,0,-0.1928711,98.1577,0,0,0,0,0,1,1617673452.00491,1,0.12,1617673452.073883,-22.89496,-30.76488,0
1617673452.135244,5,0,0,0,0,0,0,0,0,0,1617673452.126019,3.912582397460938,15.89350128173828,-41.10401153564453,348.8309631347656,355.8605346679688,15.82759571075439,1047654.532774167,0.09307861328125,-0.1767578125,-1.014984130859375,1047654.511605167,-0.1634805351495743,0.009704292751848698,0.03481657058000565,1047654.476271167,14.51506042480469,50.81008911132812,-111.1122283935547,1047654.489191167,-0.340227567626631,0.07502489138468582,0.1836241289122021,0.1078042685985565,0.3041001260280609,0.06608864665031433,0.01999451965093613,-0.002311989665031433,-0.05358916521072388,2,0.09661858367936391,0.02129609616252484,-0.165074045225533,0.9813062070461451,0.07369442284107208,-0.18259397149086,-0.9804226756095886,3.227782249450684,16.17109298706055,-40.83428955078125,-1,2,1047654.398757167,1,2,1617673451.987926,0,0,0,0,0,0,0,0,0,1047651.950211,0,-0.1928711,98.1577,0,0,0,0,0,1,1617673452.00491,1,0.12,1617673452.118767,-22.89496,-29.8267,0
1617673452.173759,6,0,0,0,0,0,0,0,0,0,1617673452.165517,3.93565559387207,16.1931266784668,-40.825439453125,348.8146057128906,355.8441772460938,15.82819843292236,1047654.566396167,0.0746612548828125,-0.16070556640625,-1.000167846679688,1047654.545226167,-0.454884946346283,-0.1511301249265671,-0.003217631252482533,1047654.536264167,15.56349182128906,50.49980163574219,-111.1283721923828,1047654.548964167,-0.3372123384236507,0.074116080255856,0.1697323151338818,-0.4753288626670837,-0.1611156910657883,-0.009490698575973511,0.009596370160579681,0.001773789525032043,-0.02450686693191528,2,0.08969982236886778,0.02217832840013508,-0.1639937758415768,0.9821241997013623,0.07298417389392853,-0.1689185202121735,-0.9829241037368774,4.052585601806641,16.02188491821289,-40.71363830566406,-1,2,1047654.398757167,1,2,1617673451.987926,0,0,0,0,0,0,0,0,0,1047651.950211,0,-0.1928711,98.1577,0,0,0,0,0,1,1617673452.00491,1,0.12,1617673452.141301,-22.89496,-29.88903,0
1617673452.205371,7,0,0,0,0,0,0,0,0,0,1617673452.185525,3.793700218200684,16.59100723266602,-40.75584411621094,349.134521484375,356.1640930175781,15.82850074768066,1047654.600019167,0.072509765625,-0.155120849609375,-1.0072021484375,1047654.578850167,-0.4033836722373962,-0.1275499761104584,-0.02046159841120243,1047654.596254167,15.12174987792969,51.43479919433594,-110.7902069091797,1047654.548964167,-0.3372123384236507,0.074116080255856,0.1697323151338818,-0.4753288626670837,-0.1611156910657883,-0.009490698575973511,0.009596370160579681,0.001773789525032043,-0.02450686693191528,2,0.08969982236886778,0.02217832840013508,-0.1639937758415768,0.9821241997013623,0.07298417389392853,-0.1689185202121735,-0.9829241037368774,4.052585601806641,16.02188491821289,-40.71363830566406,-1,2,1047654.398757167,1,2,1617673451.987926,0,0,0,0,0,0,0,0,0,1047651.950211,0,-0.1928711,98.1577,0,0,0,0,0,1,1617673452.00491,1,0.12,1617673452.17461,-22.89496,-30.3433,0
1617673452.23493,8,0,0,0,0,0,0,0,0,0,1617673452.22531,3.557053565979004,17.20532608032227,-40.36790466308594,349.099365234375,356.1289367675781,15.82910346984863,1047654.633640167,0.07073974609375,-0.157196044921875,-1.01361083984375,1047654.612471167,-0.1562521904706955,-0.08128313720226288,0.003038666676729918,1047654.596254167,15.12174987792969,51.43479919433594,-110.7902069091797,1047654.608736167,-0.3363919027867996,0.0657638386809517,0.1465171968352195,-0.1969826817512512,-0.09900689125061035,0.0009369702311232686,0.007497429847717285,-0.00622810423374176,-0.01880389451980591,2,0.07761002176030574,0.02007892977021428,-0.1644924334010272,0.9831153157521755,0.06501232832670212,-0.1459935307502747,-0.9871470332145691,3.65572452545166,16.97361373901367,-40.39026641845703,-1,2,1047654.398757167,1,2,1617673451.987926,0,0,0,0,0,0,0,0,0,1047651.950211,0,-0.1928711,98.1577,0,0,0,0,0,1,1617673452.00491,1,0.12,1617673452.207678,-22.89496,-30.35075,0
1617673452.283681,9,0,0,0,0,0,0,0,0,0,1617673452.264987,3.403367042541504,17.34151458740234,-40.08004760742188,348.9623413085938,355.9919128417969,15.8297061920166,1047654.667264167,0.0635986328125,-0.1458282470703125,-1.010040283203125,1047654.646093167,0.09229610860347748,-0.08658682554960251,0.06881608068943024,1047654.656243167,14.84745788574219,51.89669799804688,-110.509765625,1047654.608736167,-0.3363919027867996,0.0657638386809517,0.1465171968352195,-0.1969826817512512,-0.09900689125061035,0.0009369702311232686,0.007497429847717285,-0.00622810423374176,-0.01880389451980591,2,0.07761002176030574,0.02007892977021428,-0.1644924334010272,0.9831153157521755,0.06501232832670212,-0.1459935307502747,-0.9871470332145691,3.65572452545166,16.97361373901367,-40.39026641845703,-1,2,1047654.398757167,1,2,1617673451.987926,0,0,0,0,0,0,0,0,0,1047651.950211,0,-0.1928711,98.1577,0,0,0,0,0,1,1617673452.00491,1,0.12,1617673452.283609,-22.89496,-27.2411,0
1617673452.304758,10,0,0,0,0,0,0,0,0,0,1617673452.284898,3.331656455993652,17.33445739746094,-40.18827819824219,348.903076171875,355.9326477050781,15.83000659942627,1047654.700885167,0.047607421875,-0.1512603759765625,-0.986907958984375,1047654.679716167,0.1099888160824776,-0.1051985919475555,0.05033481121063232,1047654.656243167,14.84745788574219,51.89669799804688,-110.509765625,1047654.668509167,-0.3333597935295751,0.05981723984156496,0.1474053019148462,0.1209158450365067,-0.1288607716560364,0.06344787776470184,0.004465345293283463,0.00104387104511261,-0.02265387773513794,2,0.07753085038606729,0.01719824677541753,-0.1632132582489638,0.9833894050725416,0.05913327261805534,-0.1468720734119415,-0.9873863458633423,3.380403518676758,17.34574890136719,-40.17910766601562,-1,2,1047654.398757167,1,2,1617673451.987926,0,0,0,0,0,0,0,0,0,1047651.950211,0,-0.1928711,98.1577,0,0,0,0,0,1,1617673452.00491,1,0.12,1617673452.283609,-22.89496,-27.2411,0
1617673452.343038,11,0,0,0,0,0,0,0,0,0,1617673452.324663,3.180403709411621,17.37797546386719,-40.1524658203125,348.816650390625,355.8462219238281,15.83040142059326,1047654.734506167,0.0478973388671875,-0.145538330078125,-1.000045776367188,1047654.713337167,-0.003961452282965183,-0.08917061984539032,0.03185193985700607,1047654.716231167,14.60716247558594,51.99934387207031,-110.5663757324219,1047654.668509167,-0.3333597935295751,0.05981723984156496,0.1474053019148462,0.1209158450365067,-0.1288607716560364,0.06344787776470184,0.004465345293283463,0.00104387104511261,-0.02265387773513794,2,0.07753085038606729,0.01719824677541753,-0.1632132582489638,0.9833894050725416,0.05913327261805534,-0.1468720734119415,-0.9873863458633423,3.380403518676758,17.34574890136719,-40.17910766601562,-1,2,1047654.398757167,1,2,1617673451.987926,0,0,0,0,0,0,0,0,0,1047651.950211,0,-0.1928711,98.1577,0,0,0,0,0,1,1617673452.00491,1,0.12,1617673452.308264,-22.89496,-27.63953,0
1617673452.374466,12,0,0,0,0,0,0,0,0,0,1617673452.365119,3.099172592163086,17.29825973510742,-40.23298645019531,348.8266296386719,355.856201171875,15.83057594299316,1047654.768130167,0.052947998046875,-0.1455841064453125,-0.985931396484375,1047654.746961167,-0.04488252103328705,-0.1353714019060135,-0.01157489698380232,1047654.716231167,14.60716247558594,51.99934387207031,-110.5663757324219,1047654.728281167,-0.3310217005628885,0.05385641247081172,0.1496283415724336,-0.04072774201631546,-0.1280085444450378,0.01540250144898891,-0.005484171211719513,0.0007552355527877808,-0.0162540078163147,2,0.07811988586147782,0.01417257623918896,-0.1622508073855417,0.9835502141198535,0.05322891101241112,-0.1490706354379654,-0.9873928427696228,3.14637279510498,17.36953353881836,-40.12747192382812,-1,2,1047654.398757167,1,2,1617673451.987926,0,0,0,0,0,0,0,0,0,1047651.950211,0,-0.1928711,98.1577,0,0,0,0,0,1,1617673452.00491,1,0.12,1617673452.373844,-22.89496,-28.33599,0
1617673452.414153,13,0,0,0,0,0,0,0,0,0,1617673452.404353,2.948816299438477,17.36531448364258,-40.13771820068359,348.8393859863281,355.8689575195312,15.8306884765625,1047654.801751167,0.0438079833984375,-0.155914306640625,-0.978363037109375,1047654.780582167,-0.02866147272288799,-0.1023378223180771,-0.01470890454947948,1047654.776224167,14.44035339355469,51.93559265136719,-110.32080078125,1047654.788054167,-0.3316649476048644,0.04625293756076838,0.1465880805965434,-0.01774954609572887,-0.0832497701048851,0.003573499619960785,0.004018325358629227,-0.01082716882228851,0.01713258028030396,2,0.07601149800331342,0.01066109993147804,-0.1629160939112373,0.9836498123160543,0.04574057087302208,-0.1460636556148529,-0.9882171750068665,2.978701591491699,17.29205322265625,-39.99268341064453,-1,2,1047654.398757167,1,2,1617673451.987926,0,0,0,0,0,0,0,0,0,1047651.950211,0,-0.1928711,98.1577,0,0,0,0,0,1,1617673452.00491,1,0.12,1617673452.373844,-22.89496,-28.33599,0
1617673452.434161,14,0,0,0,0,0,0,0,0,0,1617673452.424879,2.811319351196289,17.44348526000977,-40.26548004150391,348.8092041015625,355.8387756347656,15.83073616027832,1047654.835372167,0.04034423828125,-0.1558837890625,-0.9853668212890625,1047654.814203167,0.09392223507165909,-0.04186275973916054,0.02963991835713387,1047654.776224167,14.44035339355469,51.93559265136719,-110.32080078125,1047654.788054167,-0.3316649476048644,0.04625293756076838,0.1465880805965434,-0.01774954609572887,-0.0832497701048851,0.003573499619960785,0.004018325358629227,-0.01082716882228851,0.01713258028030396,2,0.07601149800331342,0.01066109993147804,-0.1629160939112373,0.9836498123160543,0.04574057087302208,-0.1460636556148529,-0.9882171750068665,2.978701591491699,17.29205322265625,-39.99268341064453,-1,2,1047654.398757167,1,2,1617673451.987926,0,0,0,0,0,0,0,0,0,1047651.950211,0,-0.1928711,98.1577,0,0,0,0,0,1,1617673452.00491,1,0.12,1617673452.414688,-22.89496,-29.45216,0
1617673452.477348,15,0,0,0,0,0,0,0,0,0,1617673452.464467,2.792757034301758,17.34029006958008,-40.20252990722656,348.7299499511719,355.759521484375,15.83083343505859,1047654.868996167,0.032196044921875,-0.160003662109375,-0.959014892578125,1047654.847827167,0.1055418699979782,-0.0582694299519062,0.03826776146888733,1047654.836208167,14.23687744140625,51.94247436523438,-110.437744140625,1047654.847827167,-0.3301365435955744,0.04274119031167398,0.1508445818125627,0.09422105550765991,-0.06356701999902725,0.04018040001392365,-0.004904739558696747,-0.009471029043197632,0.01145380735397339,2,0.07781096724356398,0.008639784615155063,-0.1622268473964213,0.9836427473423335,0.04224297776818275,-0.1502731740474701,-0.9877415895462036,2.819019317626953,17.36479187011719,-40.11370086669922,-1,2,1047654.398757167,1,2,1617673451.987926,0,0,0,0,0,0,0,0,0,1047651.950211,0,-0.1928711,98.1577,0,0,0,0,0,1,1617673452.00491,1,0.12,1617673452.477332,-22.89496,-26.98068,0
1617673452.503697,16,0,0,0,0,0,0,0,0,0,1617673452.484182,2.803230285644531,17.26964569091797,-40.22103118896484,348.6807556152344,355.7103271484375,15.83088302612305,1047654.902617167,0.03179931640625,-0.156829833984375,-0.981170654296875,1047654.881448167,-0.01719683036208153,0.007004912476986647,0.0468471348285675,1047654.896199167,14.21543884277344,51.76571655273438,-110.4229583740234,1047654.847827167,-0.3301365435955744,0.04274119031167398,0.1508445818125627,0.09422105550765991,-0.06356701999902725,0.04018040001392365,-0.004904739558696747,-0.009471029043197632,0.01145380735397339,2,0.07781096724356398,0.008639784615155063,-0.1622268473964213,0.9836427473423335,0.04224297776818275,-0.1502731740474701,-0.9877415895462036,2.819019317626953,17.36479187011719,-40.11370086669922,-1,2,1047654.398757167,1,2,1617673451.987926,0,0,0,0,0,0,0,0,0,1047651.950211,0,-0.1928711,98.1577,0,0,0,0,0,1,1617673452.00491,1,0.12,1617673452.477332,-22.89496,-26.98068,0
1617673452.543596,17,0,0,0,0,0,0,0,0,0,1617673452.524129,2.791012763977051,17.3104133605957,-40.16640472412109,348.5654907226562,355.5950622558594,15.83099555969238,1047654.936240167,0.0357513427734375,-0.1446380615234375,-0.9894561767578125,1047654.915069167,-0.09311023354530334,-0.05148210003972054,0.0383247509598732,1047654.896199167,14.21543884277344,51.76571655273438,-110.4229583740234,1047654.907599167,-0.3273922195163461,0.04111333499468134,0.1509041502973331,-0.08898980915546417,-0.03520045429468155,0.04719248414039612,-0.007248431444168091,-0.005170226097106934,-0.0009999275207519531,2,0.0776973509170165,0.007940865614101927,-0.160939262896191,0.9838692133445996,0.04063465446233749,-0.1503320634365082,-0.987800121307373,2.764983177185059,17.269287109375,-40.06206512451172,-1,2,1047654.398757167,1,2,1617673451.987926,0,0,0,0,0,0,0,0,0,1047651.950211,0,-0.1928711,98.1577,0,0,0,0,0,1,1617673452.00491,1,0.12,1617673452.541339,-22.89496,-28.53123,0
1617673452.582382,18,0,0,0,0,0,0,0,0,0,1617673452.564259,2.769491195678711,17.30972290039062,-40.01235198974609,348.4989013671875,355.5284729003906,15.83109664916992,1047654.969862167,0.0330047607421875,-0.1367034912109375,-1.0020751953125,1047654.948693167,-0.05358253419399261,-0.005321794655174017,0.02171328477561474,1047654.956183167,14.21969604492188,51.89866638183594,-110.3663635253906,1047654.907599167,-0.3273922195163461,0.04111333499468134,0.1509041502973331,-0.08898980915546417,-0.03520045429468155,0.04719248414039612,-0.007248431444168091,-0.005170226097106934,-0.0009999275207519531,2,0.0776973509170165,0.007940865614101927,-0.160939262896191,0.9838692133445996,0.04063465446233749,-0.1503320634365082,-0.987800121307373,2.764983177185059,17.269287109375,-40.06206512451172,-1,2,1047654.398757167,1,2,1617673451.987926,0,0,0,0,0,0,0,0,0,1047651.950211,0,-0.1928711,98.1577,0,0,0,0,0,1,1617673452.00491,1,0.12,1617673452.582303,-22.89496,-28.91706,0
1617673452.603504,19,0,0,0,0,0,0,0,0,0,1617673452.583691,2.697103500366211,17.36367416381836,-40.11414337158203,348.4835510253906,355.5131225585938,15.83114719390869,1047655.003483167,0.03460693359375,-0.144317626953125,-1.001541137695312,1047654.982314167,0.06661257892847061,-0.005864280741661787,0.008922655135393143,1047654.956183167,14.21969604492188,51.89866638183594,-110.3663635253906,1047654.967372167,-0.3254637850782928,0.03860720755827753,0.1473002267002746,0.004290525801479816,-0.002345720306038857,0.01347599271684885,-0.006151456385850906,0.01032407581806183,-0.011138916015625,2,0.07571665724539367,0.007076362874356597,-0.1601437244358697,0.9841599522797281,0.03817963972687721,-0.1467681378126144,-0.988433837890625,2.711483955383301,17.30692291259766,-39.98683929443359,-1,2,1047654.398757167,1,2,1617673451.987926,0,0,0,0,0,0,0,0,0,1047651.950211,0,-0.1928711,98.1577,0,0,0,0,0,1,1617673452.00491,1,0.12,1617673452.582303,-22.89496,-28.91706,0
1617673452.659089,20,0,0,0,0,0,0,0,0,0,1617673452.643541,2.717530250549316,17.27279663085938,-40.25274658203125,348.4854125976562,355.5149841308594,15.83130264282227,1047655.037106167,0.0361480712890625,-0.148284912109375,-0.993194580078125,1047655.015937167,0.06749861687421799,-0.009918943047523499,-0.00244664610363543,1047655.016166167,14.24946594238281,51.82489013671875,-110.3280181884766,1047655.027144167,-0.3251925567106446,0.03763368283257218,0.1506275857445016,0.03066966123878956,-0.01620088890194893,-0.001202183542773128,6.316974759101868e-05,0.003009751439094543,-0.006209313869476318,2,0.07727431142799815,0.006336747031066309,-0.1599962385078907,0.9840679923574347,0.03719877824187279,-0.1500586420297623,-0.9879770278930664,2.767260551452637,17.22222518920898,-40.09402465820312,-1,2,1047654.398757167,1,2,1617673451.987926,0,0,0,0,0,0,0,0,0,1047651.950211,0,-0.1928711,98.1577,0,0,0,0,0,1,1617673452.00491,1,0.12,1617673452.659039,-22.89496,-27.11436,0
1617673452.673601,21,0,0,0,0,0,0,0,0,0,1617673452.663489,2.62554931640625,17.33126068115234,-40.20349884033203,348.5097045898438,355.5392761230469,15.83135414123535,1047655.070728167,0.042022705078125,-0.1634368896484375,-0.98736572265625,1047655.049559167,-0.01100790966302156,-0.03574521467089653,-0.02702016569674015,1047655.016166167,14.24946594238281,51.82489013671875,-110.3280181884766,1047655.027144167,-0.3251925567106446,0.03763368283257218,0.1506275857445016,0.03066966123878956,-0.01620088890194893,-0.001202183542773128,6.316974759101868e-05,0.003009751439094543,-0.006209313869476318,2,0.07727431142799815,0.006336747031066309,-0.1599962385078907,0.9840679923574347,0.03719877824187279,-0.1500586420297623,-0.9879770278930664,2.767260551452637,17.22222518920898,-40.09402465820312,-1,2,1047654.398757167,1,2,1617673451.987926,0,0,0,0,0,0,0,0,0,1047651.950211,0,-0.1928711,98.1577,0,0,0,0,0,1,1617673452.00491,1,0.12,1617673452.659039,-22.89496,-27.11436,0
1617673452.714714,22,0,0,0,0,0,0,0,0,0,1617673452.703262,2.614494323730469,17.30011749267578,-40.21300506591797,348.5405883789062,355.5701599121094,15.83145999908447,1047655.104349167,0.0384368896484375,-0.166839599609375,-0.9673614501953125,1047655.083180167,-0.06433398276567459,-0.07754538953304291,-0.02053377032279968,1047655.076151167,14.11770629882812,51.80535888671875,-110.5238189697266,1047655.086917167,-0.3260928238262799,0.03489251212517703,0.1479337224099646,-0.07734496891498566,-0.08953775465488434,-0.01656958647072315,0.01003598794341087,-0.01538597047328949,-0.0061531662940979,2,0.07573231301745745,0.005173033067809644,-0.1605843835912723,0.9840987955356486,0.03450440615415573,-0.1473947465419769,-0.9884757399559021,2.624238014221191,17.24231719970703,-40.1343994140625,-1,2,1047654.398757167,1,2,1617673451.987926,0,0,0,0,0,0,0,0,0,1047651.950211,0,-0.1928711,98.1577,0,0,0,0,0,1,1617673452.00491,1,0.12,1617673452.675107,-22.89496,-27.11436,0
1617673452.743141,23,0,0,0,0,0,0,0,0,0,1617673452.723911,2.501765251159668,17.27849578857422,-40.18052673339844,348.5333557128906,355.5629272460938,15.83151435852051,1047655.137972167,0.0440673828125,-0.154876708984375,-0.9935150146484375,1047655.116803167,-0.07515972852706909,0.02083257772028446,0.009284844622015953,1047655.136139167,13.87911987304688,52.06365966796875,-110.6100921630859,1047655.086917167,-0.3260928238262799,0.03489251212517703,0.1479337224099646,-0.07734496891498566,-0.08953775465488434,-0.01656958647072315,0.01003598794341087,-0.01538597047328949,-0.0061531662940979,2,0.07573231301745745,0.005173033067809644,-0.1605843835912723,0.9840987955356486,0.03450440615415573,-0.1473947465419769,-0.9884757399559021,2.624238014221191,17.24231719970703,-40.1343994140625,-1,2,1047654.398757167,1,2,1617673451.987926,0,0,0,0,0,0,0,0,0,1047651.950211,0,-0.1928711,98.1577,0,0,0,0,0,1,1617673452.00491,1,0.12,1617673452.741384,-22.89496,-28.23812,0
1617673452.772883,24,0,0,0,0,0,0,0,0,0,1617673452.743278,2.456053733825684,17.38679885864258,-40.13349914550781,348.5203857421875,355.5499572753906,15.83156776428223,1047655.171594167,0.0368804931640625,-0.162689208984375,-0.984161376953125,1047655.150425167,-0.01168248895555735,0.0131898382678628,0.005094893276691437,1047655.136139167,13.87911987304688,52.06365966796875,-110.6100921630859,1047655.146690167,-0.3259161722438659,0.03369241550101017,0.1439439002104458,-0.03047491982579231,-0.002118092030286789,0.003169395495206118,0.01027194410562515,-0.009659320116043091,-0.005608916282653809,2,0.07367296507335956,0.004914367218498621,-0.1605995322925143,0.9842540092926689,0.03333766013383865,-0.1434473395347595,-0.9890962839126587,2.435439109802246,17.35695648193359,-40.19063568115234,-1,2,1047654.398757167,1,2,1617673451.987926,0,0,0,0,0,0,0,0,0,1047651.950211,0,-0.1928711,98.1577,0,0,0,0,0,1,1617673452.00491,1,0.12,1617673452.741384,-22.89496,-28.23812,0
1617673452.812511,25,0,0,0,0,0,0,0,0,0,1617673452.802809,2.637948989868164,17.29661560058594,-39.4239501953125,348.4193115234375,355.4488830566406,15.83173179626465,1047655.205217167,0.0399017333984375,-0.1520538330078125,-1.000961303710938,1047655.184046167,-0.00957086868584156,0.01544739957898855,0.04068377986550331,1047655.196127167,14.10115051269531,51.86500549316406,-109.6812591552734,1047655.146690167,-0.3259161722438659,0.03369241550101017,0.1439439002104458,-0.03047491982579231,-0.002118092030286789,0.003169395495206118,0.01027194410562515,-0.009659320116043091,-0.005608916282653809,2,0.07367296507335956,0.004914367218498621,-0.1605995322925143,0.9842540092926689,0.03333766013383865,-0.1434473395347595,-0.9890962839126587,2.435439109802246,17.35695648193359,-40.19063568115234,-1,2,1047654.398757167,1,2,1617673451.987926,0,0,0,0,0,0,0,0,0,1047651.950211,0,-0.1928711,98.1577,0,0,0,0,0,1,1617673452.00491,1,0.12,1617673452.807921,-22.89496,-29.25872,0
1617673452.842725,26,0,0,0,0,0,0,0,0,0,1617673452.822667,2.62740421295166,17.4600715637207,-39.76480102539062,348.3493957519531,355.3789672851562,15.83178615570068,1047655.238838167,0.0360260009765625,-0.137939453125,-1.003631591796875,1047655.217669167,-0.04534830525517464,-0.009938917122781277,0.06055495515465736,1047655.196127167,14.10115051269531,51.86500549316406,-109.6812591552734,1047655.206462167,-0.3238819910834965,0.03464819236252153,0.1440637276769378,-0.04662081599235535,-0.01556210033595562,0.05870234593749046,0.005619317293167114,-0.008487865328788757,-0.01191449165344238,2,0.07380314397512905,0.005450030732668698,-0.1595614298728045,0.9844102912697901,0.03428240120410919,-0.1435659229755402,-0.9890468120574951,2.646625518798828,17.34573364257812,-39.39666748046875,-1,2,1047654.398757167,1,2,1617673451.987926,0,0,0,0,0,0,0,0,0,1047651.950211,0,-0.1928711,98.1577,0,0,0,0,0,1,1617673452.00491,1,0.12,1617673452.841669,-22.89496,-29.51848,0
1617673452.872711,27,0,0,0,0,0,0,0,0,0,1617673452.862805,2.748481750488281,17.36777877807617,-39.58224487304688,348.1956176757812,355.2251892089844,15.83189582824707,1047655.272460167,0.0339508056640625,-0.13275146484375,-0.984466552734375,1047655.251290167,-0.02300944551825523,-0.1153470948338509,0.06288788467645645,1047655.256117167,14.16270446777344,52.02285766601562,-110.0782928466797,1047655.206462167,-0.3238819910834965,0.03464819236252153,0.1440637276769378,-0.04662081599235535,-0.01556210033595562,0.05870234593749046,0.005619317293167114,-0.008487865328788757,-0.01191449165344238,2,0.07380314397512905,0.005450030732668698,-0.1595614298728045,0.9844102912697901,0.03428240120410919,-0.1435659229755402,-0.9890468120574951,2.646625518798828,17.34573364257812,-39.39666748046875,-1,2,1047654.398757167,1,2,1617673451.987926,0,0,0,0,0,0,0,0,0,1047651.950211,0,-0.1928711,98.1577,0,0,0,0,0,1,1617673452.00491,1,0.12,1617673452.841669,-22.89496,-29.51848,0
1617673452.912181,28,0,0,0,0,0,0,0,0,0,1617673452.902557,2.443941116333008,17.65759658813477,-40.15412902832031,348.0564575195312,355.0860290527344,15.83200836181641,1047655.306084167,0.017333984375,-0.1419830322265625,-0.96234130859375,1047655.284914167,-0.002571548335254192,-0.124947264790535,0.05752773955464363,1047655.256117167,14.16270446777344,52.02285766601562,-110.0782928466797,1047655.266235167,-0.3199626509720529,0.03030676670017416,0.1424227298412358,-0.0198034904897213,-0.1437197029590607,0.06039614602923393,0.005786528810858727,0.008396849036216736,-0.003560483455657959,2,0.07264227194244052,0.003588323542845346,-0.1578134257061431,0.9847867917963813,0.02999531850218773,-0.1419417262077332,-0.989420473575592,2.61107063293457,17.54245376586914,-39.906005859375,-1,2,1047654.398757167,1,2,1617673451.987926,0,0,0,0,0,0,0,0,0,1047651.950211,0,-0.1928711,98.1577,0,0,0,0,0,1,1617673452.00491,1,0.12,1617673452.90892,-22.34159,-26.57946,0
1617673452.944162,29,0,0,0,0,0,0,0,0,0,1617673452.942354,2.440658569335938,17.66335678100586,-39.93230438232422,347.8887939453125,354.9183654785156,15.83212089538574,1047655.339705167,0.012115478515625,-0.1425628662109375,-0.9719696044921875,1047655.318536167,-0.01030377019196749,-0.04812385141849518,0.07094234973192215,1047655.316116167,13.88377380371094,52.02911376953125,-110.2838745117188,1047655.326008167,-0.3160370703969436,0.02470818303217156,0.1416152155951914,-0.02916931733489037,-0.03752796724438667,0.07359907776117325,-0.007399030029773712,-0.0004591792821884155,0.01492518186569214,2,0.07180080783552234,0.001037041858545848,-0.1560923153325047,0.9851288379209974,0.02445834875106812,-0.141142338514328,-0.9896871447563171,2.414521217346191,17.57837677001953,-39.89514923095703,-1,2,1047654.398757167,1,2,1617673451.987926,0,0,0,0,0,0,0,0,0,1047652.899436,0,-0.1770325,98.1575,0,0,0,0,0,1,1617673452.00491,1,0.12,1617673452.90892,-22.34159,-26.57946,0
1617673452.972451,30,0,0,0,0,0,0,0,0,0,1617673452.962796,2.336008071899414,17.71955490112305,-40.00255584716797,347.8054809570312,354.8350524902344,15.83217716217041,1047655.373327167,0.015289306640625,-0.13134765625,-0.995849609375,1047655.352157167,-0.05768353492021561,0.0304977223277092,0.07143237441778183,1047655.316116167,13.88377380371094,52.02911376953125,-110.2838745117188,1047655.326008167,-0.3160370703969436,0.02470818303217156,0.1416152155951914,-0.02916931733489037,-0.03752796724438667,0.07359907776117325,-0.007399030029773712,-0.0004591792821884155,0.01492518186569214,2,0.07180080783552234,0.001037041858545848,-0.1560923153325047,0.9851288379209974,0.02445834875106812,-0.141142338514328,-0.9896871447563171,2.414521217346191,17.57837677001953,-39.89514923095703,-1,2,1047654.398757167,1,2,1617673451.987926,0,0,0,0,0,0,0,0,0,1047652.899436,0,-0.1770325,98.1575,0,0,0,0,0,1,1617673452.00491,1,0.12,1617673452.954045,-22.34159,-27.61001,0
1617673453.012329,31,0,0,0,0,0,0,0,0,0,1617673453.002389,2.422695159912109,17.84156799316406,-39.7900390625,347.7245788574219,354.754150390625,15.83229160308838,1047655.406950167,0.021636962890625,-0.1299591064453125,-0.9975128173828125,1047655.385781167,-0.1134354844689369,0.01946238055825233,0.01963522098958492,1047655.376105167,13.88333129882812,52.25773620605469,-110.0382995605469,1047655.385781167,-0.3122216258117481,0.02522411080104818,0.1369297694491502,-0.1247521787881851,0.0141658578068018,0.02154631540179253,-0.005621965974569321,0.01038840413093567,-0.01371896266937256,2,0.06953036447384518,0.001793577229260403,-0.1542486285260507,0.9855807964009082,0.02498535811901093,-0.1365022659301758,-0.9903246164321899,2.412235260009766,17.78435897827148,-39.75441741943359,-1,2,1047654.398757167,1,2,1617673451.987926,0,0,0,0,0,0,0,0,0,1047652.899436,0,-0.1770325,98.1575,0,0,0,0,0,1,1617673452.00491,1,0.12,1617673452.974097,-22.34159,-28.12355,0
1617673453.041681,32,0,0,0,0,0,0,0,0,0,1617673453.022444,2.402315139770508,17.97611999511719,-39.94725799560547,347.7289428710938,354.7585144042969,15.83234786987305,1047655.440571167,0.0264892578125,-0.14251708984375,-1.021392822265625,1047655.419402167,-0.1359754055738449,0.07001876831054688,-0.01404125057160854,1047655.436098167,13.86102294921875,52.63375854492188,-110.2036895751953,1047655.385781167,-0.3122216258117481,0.02522411080104818,0.1369297694491502,-0.1247521787881851,0.0141658578068018,0.02154631540179253,-0.005621965974569321,0.01038840413093567,-0.01371896266937256,2,0.06953036447384518,0.001793577229260403,-0.1542486285260507,0.9855807964009082,0.02498535811901093,-0.1365022659301758,-0.9903246164321899,2.412235260009766,17.78435897827148,-39.75441741943359,-1,2,1047654.398757167,1,2,1617673451.987926,0,0,0,0,0,0,0,0,0,1047652.899436,0,-0.1770325,98.1575,1617673453.012811,587422867,1685438189,0,0,1,1617673452.00491,1,0.12,1617673453.041504,-22.34159,-28.82771,0
1617673453.08152,33,0,0,0,0,0,0,0,0,0,1617673453.062254,2.489457130432129,18.08978652954102,-39.82147216796875,347.72265625,354.7522277832031,15.83246421813965,1047655.474195167,0.0229949951171875,-0.1460113525390625,-1.01611328125,1047655.453023167,-0.01310168765485287,0.04824715852737427,0.01262764446437359,1047655.436098167,13.86102294921875,52.63375854492188,-110.2036895751953,1047655.445553167,-0.3122219101839222,0.0269564466092104,0.1299049884234263,-0.05376781150698662,0.03895166516304016,0.0009269763249903917,-6.898492574691772e-05,-0.01351118087768555,-0.03080445528030396,2,0.06620278955330337,0.003195196413703517,-0.1542715435833503,0.9858027797788077,0.02672608010470867,-0.1295399367809296,-0.9912139773368835,2.506779670715332,18.05237579345703,-39.76742553710938,-1,2,1047654.398757167,1,2,1617673451.987926,0,0,0,0,0,0,0,0,0,1047652.899436,0,-0.1770325,98.1575,1617673453.012811,587422867,1685438189,0,0,1,1617673452.00491,1,0.12,1617673453.078412,-22.34159,-29.98109,0
1617673453.111518,34,0,0,0,0,0,0,0,0,0,1617673453.101954,2.641707420349121,18.09624099731445,-39.71731567382812,347.6351928710938,354.6647644042969,15.83259582519531,1047655.507816167,0.0244598388671875,-0.137451171875,-1.023651123046875,1047655.486647167,0.04313868284225464,0.07049281150102615,0.04263108223676682,1047655.496090167,14.09414672851562,52.68885803222656,-110.0803833007812,1047655.445553167,-0.3122219101839222,0.0269564466092104,0.1299049884234263,-0.05376781150698662,0.03895166516304016,0.0009269763249903917,-6.898492574691772e-05,-0.01351118087768555,-0.03080445528030396,2,0.06620278955330337,0.003195196413703517,-0.1542715435833503,0.9858027797788077,0.02672608010470867,-0.1295399367809296,-0.9912139773368835,2.506779670715332,18.05237579345703,-39.76742553710938,-1,2,1047654.398757167,1,2,1617673451.987926,0,0,0,0,0,0,0,0,0,1047652.899436,0,-0.1770325,98.1575,1617673453.012811,587422867,1685438189,0,0,1,1617673452.00491,1,0.12,1617673453.107989,-22.34159,-29.5928,0
1617673453.141689,35,0,0,0,0,0,0,0,0,0,1617673453.121618,2.629288673400879,18.15191650390625,-39.78710174560547,347.5829772949219,354.612548828125,15.8326997756958,1047655.541437167,0.026275634765625,-0.1260986328125,-1.016647338867188,1047655.520268167,0.01195013616234064,0.01787780039012432,0.0387902744114399,1047655.496090167,14.09414672851562,52.68885803222656,-110.0803833007812,1047655.505326167,-0.3102381024348508,0.02958512558354608,0.1306620705987262,0.01954156532883644,0.04683682695031166,0.04525598883628845,-0.005601251497864723,-0.009037360548973083,-0.03025925159454346,2,0.06677410810162923,0.004498027057206706,-0.1531971612784834,0.9859268197882007,0.02932865917682648,-0.1302905976772308,-0.9910419583320618,2.62893009185791,18.08163833618164,-39.70536041259766,-1,2,1047654.398757167,1,2,1617673451.987926,0,0,0,0,0,0,0,0,0,1047652.899436,0,-0.1770325,98.1575,1617673453.012811,587422867,1685438189,0,0,1,1617673452.00491,1,0.12,1617673453.141667,-22.34159,-30.11578,0
1617673453.183131,36,0,0,0,0,0,0,0,0,0,1617673453.18147,2.684782028198242,18.08507537841797,-39.712158203125,347.5184020996094,354.5479736328125,15.83310604095459,1047655.575061167,0.0266265869140625,-0.1160888671875,-1.013412475585938,1047655.553891167,-0.02274579182267189,-0.02280358225107193,0.01596884615719318,1047655.556083167,14.14002990722656,52.7677001953125,-110.1122741699219,1047655.565099167,-0.308337632087413,0.02868781778098775,0.1304161284475994,-0.02343105711042881,-0.06207908317446709,0.0007684666197746992,0.0001546628773212433,0.0127219557762146,-0.02925533056259155,2,0.06658025994765368,0.004138025806351746,-0.1522931392046009,0.9860815689136637,0.02844029478728771,-0.1300467550754547,-0.9910998940467834,2.677356719970703,18.17029190063477,-39.708740234375,-1,2,1047654.398757167,1,2,1617673451.987926,0,0,0,0,0,0,0,0,0,1047652.899436,0,-0.1770325,98.1575,1617673453.012811,587422867,1685438189,0,0,1,1617673452.00491,1,0.12,1617673453.182972,-22.34159,-30.67183,0
1617673453.211405,37,0,0,0,0,0,0,0,0,0,1617673453.201692,2.63480281829834,18.24344253540039,-39.79946136474609,347.5434875488281,354.5730590820312,15.83324813842773,1047655.608682167,0.0167694091796875,-0.1326904296875,-0.9758453369140625,1047655.587513167,0.005816610064357519,-0.06494171172380447,-0.02208053506910801,1047655.556083167,14.14002990722656,52.7677001953125,-110.1122741699219,1047655.565099167,-0.308337632087413,0.02868781778098775,0.1304161284475994,-0.02343105711042881,-0.06207908317446709,0.0007684666197746992,0.0001546628773212433,0.0127219557762146,-0.02925533056259155,2,0.06658025994765368,0.004138025806351746,-0.1522931392046009,0.9860815689136637,0.02844029478728771,-0.1300467550754547,-0.9910998940467834,2.677356719970703,18.17029190063477,-39.708740234375,-1,2,1047654.398757167,1,2,1617673451.987926,0,0,0,0,0,0,0,0,0,1047652.899436,0,-0.1770325,98.1575,1617673453.012811,587422867,1685438189,0,0,1,1617673452.00491,1,0.12,1617673453.208023,-22.34159,-30.16709,0
1617673453.24304,38,0,0,0,0,0,0,0,0,0,1617673453.241323,2.621589660644531,18.28178405761719,-39.72589874267578,347.57763671875,354.6072082519531,15.83346462249756,1047655.642303167,0.02117919921875,-0.1389617919921875,-0.9918975830078125,1047655.621134167,0.01118500996381044,0.01372752990573645,-0.01337652560323477,1047655.616075167,14.13420104980469,52.695556640625,-110.0712890625,1047655.624871167,-0.3093581065442483,0.02591906301554111,0.1299613558826596,-0.000323031097650528,0.01192686147987843,-0.008729517459869385,-0.008165268227458,-0.01128852367401123,0.01256567239761353,2,0.06614663232767126,0.002774190830906225,-0.152893485473341,0.9860225026541491,0.02569760754704475,-0.1295958310365677,-0.9912338256835938,2.644912719726562,18.20674514770508,-39.68074035644531,-1,2,1047654.398757167,1,2,1617673451.987926,0,0,0,0,0,0,0,0,0,1047652.899436,0,-0.1770325,98.1575,1617673453.012811,587422867,1685438189,0,0,1,1617673452.00491,1,0.12,1617673453.208023,-22.34159,-30.16709,0
1617673453.28119,39,0,0,0,0,0,0,0,0,0,1617673453.261252,2.560449600219727,18.23445129394531,-39.76555633544922,347.5816040039062,354.6111755371094,15.8335428237915,1047655.675927167,0.0153656005859375,-0.13470458984375,-0.9917144775390625,1047655.654757167,0.03282186388969421,0.04661171138286591,-0.003691407619044185,1047655.676058167,14.05964660644531,52.69027709960938,-109.9215087890625,1047655.624871167,-0.3093581065442483,0.02591906301554111,0.1299613558826596,-0.000323031097650528,0.01192686147987843,-0.008729517459869385,-0.008165268227458,-0.01128852367401123,0.01256567239761353,2,0.06614663232767126,0.002774190830906225,-0.152893485473341,0.9860225026541491,0.02569760754704475,-0.1295958310365677,-0.9912338256835938,2.644912719726562,18.20674514770508,-39.68074035644531,-1,2,1047654.398757167,1,2,1617673451.987926,0,0,0,0,0,0,0,0,0,1047652.899436,0,-0.1770325,98.1575,1617673453.012811,587422867,1685438189,0,0,1,1617673452.00491,1,0.12,1617673453.274023,-22.34159,-29.84925,0
1617673453.314864,40,0,0,0,0,0,0,0,0,0,1617673453.301317,2.626039505004883,18.23897171020508,-39.68686676025391,347.6386108398438,354.6681823730469,15.83365917205811,1047655.709548167,0.0192108154296875,-0.1427764892578125,-1.006256103515625,1047655.688379167,0.01308118086308241,0.06826747208833694,-0.03629036247730255,1047655.676058167,14.05964660644531,52.69027709960938,-109.9215087890625,1047655.684644167,-0.3100223133918552,0.02788904328608045,0.1303838506067592,0.004473063163459301,0.06154055893421173,-0.02853821404278278,-0.01258832588791847,-0.006017327308654785,-0.001900255680084229,2,0.06650665438427755,0.00369066417735598,-0.1531506686059524,0.9859554752944151,0.02764873765408993,-0.1300147473812103,-0.9911264777183533,2.626911163330078,18.16090774536133,-39.61802673339844,-1,2,1047654.398757167,1,2,1617673451.987926,0,0,0,0,0,0,0,0,0,1047652.899436,0,-0.1770325,98.1575,1617673453.012811,587422867,1685438189,0,0,1,1617673452.00491,1,0.12,1617673453.314845,-22.34159,-30.26687,0
1617673453.350446,41,0,0,0,0,0,0,0,0,0,1617673453.348356,2.672275543212891,18.22289276123047,-39.692138671875,347.7331848144531,354.7627563476562,15.83377742767334,1047655.743171167,0.0241851806640625,-0.1499786376953125,-1.004653930664062,1047655.722000167,-0.01099805627018213,0.04607401788234711,-0.04894037917256355,1047655.736049167,14.11036682128906,52.83798217773438,-110.1254577636719,1047655.684644167,-0.3100223133918552,0.02788904328608045,0.1303838506067592,0.004473063163459301,0.06154055893421173,-0.02853821404278278,-0.01258832588791847,-0.006017327308654785,-0.001900255680084229,2,0.06650665438427755,0.00369066417735598,-0.1531506686059524,0.9859554752944151,0.02764873765408993,-0.1300147473812103,-0.9911264777183533,2.626911163330078,18.16090774536133,-39.61802673339844,-1,2,1047654.398757167,1,2,1617673451.987926,0,0,0,0,0,0,0,0,0,1047652.899436,0,-0.1770325,98.1575,1617673453.012811,587422867,1685438189,0,0,1,1617673452.00491,1,0.12,1617673453.342309,-22.34159,-30.48412,0
1617673453.380547,42,0,0,0,0,0,0,0,0,0,1617673453.360668,2.688497543334961,18.16381072998047,-39.63690948486328,347.7647399902344,354.7943115234375,15.83383655548096,1047655.776792167,0.0333709716796875,-0.1391754150390625,-1.0068359375,1047655.755623167,0.01509559620171785,0.07838029414415359,-0.02905002795159817,1047655.736049167,14.11036682128906,52.83798217773438,-110.1254577636719,1047655.744416167,-0.3123365082550178,0.03049616133065563,0.1299820193979921,-0.01571314968168736,0.06179317459464073,-0.02986733429133892,-0.00604904443025589,-0.02036228775978088,-0.01355075836181641,2,0.06651395667632437,0.00493009881359326,-0.1542096351096682,0.9857844710344752,0.03023421578109264,-0.1296163201332092,-0.9911031723022461,2.649528503417969,18.19675827026367,-39.66190338134766,-1,2,1047654.398757167,1,2,1617673451.987926,0,0,0,0,0,0,0,0,0,1047652.899436,0,-0.1770325,98.1575,1617673453.012811,587422867,1685438189,0,0,1,1617673452.00491,1,0.12,1617673453.375085,-22.34159,-30.37392,0
1617673453.41048,43,0,0,0,0,0,0,0,0,0,1617673453.400763,2.677726745605469,18.11160659790039,-39.64458465576172,347.8102722167969,354.83984375,15.83396148681641,1047655.810414167,0.0418243408203125,-0.129638671875,-1.031524658203125,1047655.789245167,0.05860898643732071,0.06175923720002174,-0.01837501302361488,1047655.796039167,14.08908081054688,52.75607299804688,-110.2257080078125,1047655.744416167,-0.3123365082550178,0.03049616133065563,0.1299820193979921,-0.01571314968168736,0.06179317459464073,-0.02986733429133892,-0.00604904443025589,-0.02036228775978088,-0.01355075836181641,2,0.06651395667632437,0.00493009881359326,-0.1542096351096682,0.9857844710344752,0.03023421578109264,-0.1296163201332092,-0.9911031723022461,2.649528503417969,18.19675827026367,-39.66190338134766,-1,2,1047654.398757167,1,2,1617673451.987926,0,0,0,0,0,0,0,0,0,1047652.899436,0,-0.1770325,98.1575,1617673453.012811,587422867,1685438189,0,0,1,1617673452.00491,1,0.12,1617673453.408034,-22.34159,-30.80005,0
1617673453.450449,44,0,0,0,0,0,0,0,0,0,1617673453.441009,2.732277870178223,18.06203079223633,-39.87566375732422,347.8759460449219,354.905517578125,15.83416652679443,1047655.844037167,0.03228759765625,-0.134429931640625,-0.997283935546875,1047655.822868167,0.07997073233127594,-0.04540263488888741,-0.03032541461288929,1047655.796039167,14.08908081054688,52.75607299804688,-110.2257080078125,1047655.804189167,-0.313635168538992,0.03345238224964918,0.1321596420386176,0.06248145550489426,-0.003706320654600859,-0.0216636061668396,0.00799846276640892,-0.00077781081199646,-0.03918218612670898,2,0.06781876157963977,0.006173017430893071,-0.1547221294428525,0.9856082526769202,0.03315448015928268,-0.1317752599716187,-0.990725040435791,2.678086280822754,18.13059234619141,-39.80909729003906,-1,2,1047654.398757167,1,2,1617673451.987926,0,0,0,0,0,0,0,0,0,1047652.899436,0,-0.1770325,98.1575,1617673453.012811,587422867,1685438189,0,0,1,1617673452.00491,1,0.12,1617673453.44164,-22.34159,-31.07021,0
1617673453.482793,45,0,0,0,0,0,0,0,0,0,1617673453.480326,2.628955841064453,18.12048721313477,-39.96274566650391,347.9699401855469,354.99951171875,15.83439350128174,1047655.877658167,0.0284576416015625,-0.1419677734375,-0.9816131591796875,1047655.856489167,0.0427277572453022,-0.04956036061048508,-0.0412512980401516,1047655.856028167,14.09439086914062,52.67271423339844,-110.2923431396484,1047655.863961167,-0.3156589207572917,0.03073560213112267,0.1359063105056854,0.0296209491789341,-0.0571245551109314,-0.04226300865411758,0.001855453476309776,-0.002954632043838501,-0.005340218544006348,2,0.06945875989508285,0.004470108141541432,-0.1557632728760266,0.9853391958771699,0.03044739365577698,-0.1354883164167404,-0.9903110265731812,2.633706092834473,18.16067123413086,-39.8994140625,-1,2,1047654.398757167,1,2,1617673451.987926,0,0,0,0,0,0,0,0,0,1047652.899436,0,-0.1770325,98.1575,1617673453.012811,587422867,1685438189,0,0,1,1617673452.00491,1,0.12,1617673453.482634,-22.34159,-31.4591,0
1617673453.509976,46,0,0,0,0,0,0,0,0,0,1617673453.500296,2.562480926513672,18.1093635559082,-39.98662567138672,348.02099609375,355.0505676269531,15.83448600769043,1047655.911280167,0.029266357421875,-0.144927978515625,-0.976226806640625,1047655.890110167,0.04374029114842415,0.007733819540590048,-0.04305878654122353,1047655.856028167,14.09439086914062,52.67271423339844,-110.2923431396484,1047655.863961167,-0.3156589207572917,0.03073560213112267,0.1359063105056854,0.0296209491789341,-0.0571245551109314,-0.04226300865411758,0.001855453476309776,-0.002954632043838501,-0.005340218544006348,2,0.06945875989508285,0.004470108141541432,-0.1557632728760266,0.9853391958771699,0.03044739365577698,-0.1354883164167404,-0.9903110265731812,2.633706092834473,18.16067123413086,-39.8994140625,-1,2,1047654.398757167,1,2,1617673451.987926,0,0,0,0,0,0,0,0,0,1047652.899436,0,-0.1770325,98.1575,1617673453.012811,587422867,1685438189,0,0,1,1617673452.00491,1,0.12,1617673453.508321,-22.34159,-32.12968,0
1617673453.550363,47,0,0,0,0,0,0,0,0,0,1617673453.540174,2.66331672668457,17.80767440795898,-40.11337280273438,348.0968627929688,355.1264343261719,15.83460998535156,1047655.944903167,0.03363037109375,-0.1504364013671875,-0.9925537109375,1047655.923734167,0.07575681060552597,0.04048244655132294,-0.03346794471144676,1047655.916020167,13.96528625488281,52.48783874511719,-110.3353881835938,1047655.923734167,-0.3181330556737395,0.03182205108990904,0.137671142773957,0.06443819403648376,0.03518542647361755,-0.0315561331808567,0.003274384886026382,-0.008774638175964355,-0.001631855964660645,2,0.07041848206489348,0.004778959026179353,-0.1569209501755584,0.9850858762767151,0.03151563927531242,-0.1372366696596146,-0.9900367856025696,2.583565711975098,17.81447601318359,-39.9600830078125,-1,2,1047654.398757167,1,2,1617673451.987926,0,0,0,0,0,0,0,0,0,1047652.899436,0,-0.1770325,98.1575,1617673453.012811,587422867,1685438189,0,0,1,1617673452.00491,1,0.12,1617673453.550342,-22.34159,-29.05755,0
1617673453.579662,48,0,0,0,0,0,0,0,0,0,1617673453.560458,2.659730911254883,17.80815887451172,-40.08713531494141,348.1211242675781,355.1506958007812,15.8346700668335,1047655.978524167,0.034332275390625,-0.1428070068359375,-0.995147705078125,1047655.957355167,0.06050409004092216,0.0247277170419693,-0.02229864709079266,1047655.976007167,14.23255920410156,52.20677185058594,-110.4502105712891,1047655.923734167,-0.3181330556737395,0.03182205108990904,0.137671142773957,0.06443819403648376,0.03518542647361755,-0.0315561331808567,0.003274384886026382,-0.008774638175964355,-0.001631855964660645,2,0.07041848206489348,0.004778959026179353,-0.1569209501755584,0.9850858762767151,0.03151563927531242,-0.1372366696596146,-0.9900367856025696,2.583565711975098,17.81447601318359,-39.9600830078125,-1,2,1047654.398757167,1,2,1617673451.987926,0,0,0,0,0,0,0,0,0,1047652.899436,0,-0.1770325,98.1575,1617673453.012811,587422867,1685438189,0,0,1,1617673452.00491,1,0.12,1617673453.573845,-22.34159,-29.42147,0
1617673453.61936,49,0,0,0,0,0,0,0,0,0,1617673453.599959,2.740523338317871,17.76909255981445,-40.25435638427734,348.1827697753906,355.2123413085938,15.83479118347168,1047656.012148167,0.02630615234375,-0.1392059326171875,-0.9824066162109375,1047655.990976167,0.02680551446974277,-0.01120498403906822,-0.03427141904830933,1047655.976007167,14.23255920410156,52.20677185058594,-110.4502105712891,1047655.983506167,-0.3195595339096153,0.033113847171344,0.1407365532207102,0.01966212689876556,-0.01200430281460285,-0.02822545357048512,0.0009567141532897949,-0.002015739679336548,-0.007301807403564453,2,0.07203269619877681,0.005119951323794322,-0.1575360430132426,0.984869265896225,0.03278045728802681,-0.1402724236249924,-0.989570140838623,2.774255752563477,17.73490905761719,-40.14694976806641,-1,2,1047654.398757167,1,2,1617673451.987926,0,0,0,0,0,0,0,0,0,1047652.899436,0,-0.1770325,98.1575,1617673453.012811,587422867,1685438189,0,0,1,1617673452.00491,1,0.12,1617673453.614813,-22.34159,-30.17532,0
1617673453.649856,50,0,0,0,0,0,0,0,0,0,1617673453.639772,2.702059745788574,17.76416778564453,-40.22074127197266,348.2892456054688,355.3188171386719,15.8349142074585,1047656.045769167,0.027374267578125,-0.1415252685546875,-0.980682373046875,1047656.024600167,-0.001570466090925038,0.02086053974926472,-0.05164721608161926,1047656.035991167,14.1416015625,52.36834716796875,-110.646728515625,1047655.983506167,-0.3195595339096153,0.033113847171344,0.1407365532207102,0.01966212689876556,-0.01200430281460285,-0.02822545357048512,0.0009567141532897949,-0.002015739679336548,-0.007301807403564453,2,0.07203269619877681,0.005119951323794322,-0.1575360430132426,0.984869265896225,0.03278045728802681,-0.1402724236249924,-0.989570140838623,2.774255752563477,17.73490905761719,-40.14694976806641,-1,2,1047654.398757167,1,2,1617673451.987926,0,0,0,0,0,0,0,0,0,1047652.899436,0,-0.1770325,98.1575,1617673453.012811,587422867,1685438189,0,0,1,1617673452.00491,1,0.12,1617673453.641334,-22.34159,-30.42608,0
1617673453.679255,51,0,0,0,0,0,0,0,0,0,1617673453.659709,2.617250442504883,17.79960632324219,-40.31126403808594,348.3519287109375,355.3815002441406,15.83497714996338,1047656.079390167,0.0323944091796875,-0.1500244140625,-0.980072021484375,1047656.058221167,0.02306537143886089,0.06306205689907074,-0.04691797494888306,1047656.035991167,14.1416015625,52.36834716796875,-110.646728515625,1047656.043279167,-0.3221934093169688,0.03376387278565127,0.1409598811933557,-0.006827640812844038,0.03347369655966759,-0.05829179286956787,-0.006826583296060562,-8.565187454223633e-05,0.009307920932769775,2,0.07220090137817543,0.005327116974332753,-0.1588063753399816,0.9846518359620164,0.03342263773083687,-0.1404935419559479,-0.9895173311233521,2.619078636169434,17.77523803710938,-40.22587585449219,-1,2,1047654.398757167,1,2,1617673451.987926,0,0,0,0,0,0,0,0,0,1047652.899436,0,-0.1770325,98.1575,1617673453.012811,587422867,1685438189,0,0,1,1617673452.00491,1,0.12,1617673453.674634,-22.34159,-30.39213,0
1617673453.722932,52,0,0,0,0,0,0,0,0,0,1617673453.719524,2.813337326049805,17.59303283691406,-40.25611114501953,348.4144287109375,355.4440002441406,15.83516407012939,1047656.113014167,0.0474853515625,-0.14306640625,-1.0047607421875,1047656.091844167,0.06333662569522858,0.08055450022220612,-0.02097479067742825,1047656.095977167,14.1480712890625,52.26885986328125,-110.6536712646484,1047656.103051167,-0.324008261626571,0.03773330048330873,0.1427820973251104,0.04552252590656281,0.03888506814837456,-0.01247576903551817,0.008100200444459915,0.001275762915611267,-0.01593124866485596,2,0.07341908200555225,0.007067786326142262,-0.1595288514860082,0.9844339921607022,0.03734046220779419,-0.1422974467277527,-0.9891193509101868,2.771127700805664,17.58576202392578,-40.24092864990234,-1,2,1047654.398757167,1,2,1617673451.987926,0,0,0,0,0,0,0,0,0,1047652.899436,0,-0.1770325,98.1575,1617673453.012811,587422867,1685438189,0,0,1,1617673452.00491,1,0.12,1617673453.708106,-22.34159,-30.76596,0
1617673453.749059,53,0,0,0,0,0,0,0,0,0,1617673453.739633,2.849617958068848,17.60805511474609,-40.32263946533203,348.4046325683594,355.4342041015625,15.83522701263428,1047656.146635167,0.0417022705078125,-0.134246826171875,-0.9932861328125,1047656.125466167,0.001386974239721894,0.008128234185278416,0.003955326974391937,1047656.095977167,14.1480712890625,52.26885986328125,-110.6536712646484,1047656.103051167,-0.324008261626571,0.03773330048330873,0.1427820973251104,0.04552252590656281,0.03888506814837456,-0.01247576903551817,0.008100200444459915,0.001275762915611267,-0.01593124866485596,2,0.07341908200555225,0.007067786326142262,-0.1595288514860082,0.9844339921607022,0.03734046220779419,-0.1422974467277527,-0.9891193509101868,2.771127700805664,17.58576202392578,-40.24092864990234,-1,2,1047654.398757167,1,2,1617673451.987926,0,0,0,0,0,0,0,0,0,1047652.899436,0,-0.1770325,98.1575,1617673453.012811,587422867,1685438189,0,0,1,1617673452.00491,1,0.12,1617673453.741421,-22.34159,-29.83338,0
1617673453.78294,54,0,0,0,0,0,0,0,0,0,1617673453.779198,2.776945114135742,17.77938461303711,-40.18775939941406,348.408447265625,355.4380187988281,15.83535194396973,1047656.180256167,0.033599853515625,-0.120849609375,-0.973480224609375,1047656.159087167,-0.05310556292533875,-0.02075907401740551,-0.003775829682126641,1047656.155958167,14.31956481933594,52.2149658203125,-110.6325531005859,1047656.162824167,-0.3237514645408872,0.03704372350270026,0.141586695288269,-0.06198898702859879,-0.02789580821990967,-0.006143183447420597,0.001070324331521988,0.01551905274391174,0.006739675998687744,2,0.07277504117254521,0.00683463147227701,-0.1594454958349846,0.9844969475985147,0.03666465356945992,-0.1411141157150269,-0.9893141388893127,2.819229125976562,17.67802429199219,-40.17226409912109,-1,2,1047654.398757167,1,2,1617673451.987926,0,0,0,0,0,0,0,0,0,1047652.899436,0,-0.1770325,98.1575,1617673453.012811,587422867,1685438189,0,0,1,1617673452.00491,1,0.12,1617673453.7828,-22.34159,-27.93205,0
1617673453.818646,55,0,0,0,0,0,0,0,0,0,1617673453.799185,2.780633926391602,17.76458740234375,-40.23642730712891,348.44384765625,355.4734191894531,15.83541679382324,1047656.213879167,0.0362701416015625,-0.1439971923828125,-0.962615966796875,1047656.192710167,-0.01511903200298548,0.01989700831472874,-0.03444798663258553,1047656.215942167,14.30516052246094,52.47694396972656,-110.5333251953125,1047656.162824167,-0.3237514645408872,0.03704372350270026,0.141586695288269,-0.06198898702859879,-0.02789580821990967,-0.006143183447420597,0.001070324331521988,0.01551905274391174,0.006739675998687744,2,0.07277504117254521,0.00683463147227701,-0.1594454958349846,0.9844969475985147,0.03666465356945992,-0.1411141157150269,-0.9893141388893127,2.819229125976562,17.67802429199219,-40.17226409912109,-1,2,1047654.398757167,1,2,1617673451.987926,0,0,0,0,0,0,0,0,0,1047652.899436,0,-0.1770325,98.1575,1617673453.012811,587422867,1685438189,0,0,1,1617673452.00491,1,0.12,1617673453.808452,-22.34159,-28.39621,0
1617673453.854718,56,0,0,0,0,0,0,0,0,0,1617673453.839225,2.817693710327148,17.86816787719727,-40.19287872314453,348.4574279785156,355.4869995117188,15.83554267883301,1047656.247501167,0.03912353515625,-0.1443939208984375,-0.9862518310546875,1047656.226332167,-0.03167057782411575,0.0772806704044342,0.004268248099833727,1047656.215942167,14.30516052246094,52.47694396972656,-110.5333251953125,1047656.222597167,-0.3250497066553892,0.03878432934983474,0.1393590117103039,-0.03979754820466042,0.07105571031570435,0.0009492792305536568,-0.001731842756271362,-0.01067349314689636,0.02381652593612671,2,0.07182275083769601,0.007825357323448748,-0.1600550182481154,0.9844606544037038,0.03839869797229767,-0.1389083713293076,-0.9895604848861694,2.861607551574707,17.85734176635742,-40.15976715087891,-1,2,1047654.398757167,1,2,1617673451.987926,0,0,0,0,0,0,0,0,0,1047652.899436,0,-0.1770325,98.1575,1617673453.012811,587422867,1685438189,0,0,1,1617673452.00491,1,0.12,1617673453.854699,-23.45615,-29.1144,0
1617673453.889014,57,0,0,0,0,0,0,0,0,0,1617673453.878988,2.942453384399414,17.77877426147461,-40.01431274414062,348.3976440429688,355.4272155761719,15.83567047119141,1047656.281124167,0.0374298095703125,-0.12493896484375,-0.9978485107421875,1047656.259953167,-0.0640956312417984,0.03219601884484291,0.02317509427666664,1047656.275936167,14.40797424316406,52.35462951660156,-110.3692016601562,1047656.222597167,-0.3250497066553892,0.03878432934983474,0.1393590117103039,-0.03979754820466042,0.07105571031570435,0.0009492792305536568,-0.001731842756271362,-0.01067349314689636,0.02381652593612671,2,0.07182275083769601,0.007825357323448748,-0.1600550182481154,0.9844606544037038,0.03839869797229767,-0.1389083713293076,-0.9895604848861694,2.861607551574707,17.85734176635742,-40.15976715087891,-1,2,1047654.398757167,1,2,1617673451.987926,0,0,0,0,0,0,0,0,0,1047653.848752,0,-0.1770325,98.1575,1617673453.012811,587422867,1685438189,0,0,1,1617673452.00491,1,0.12,1617673453.874015,-24.01343,-29.24707,0
1617673453.918323,58,0,0,0,0,0,0,0,0,0,1617673453.898771,3.03176212310791,17.7779426574707,-39.94520568847656,348.398681640625,355.4282531738281,15.83573532104492,1047656.314744792,0.03594970703125,-0.127532958984375,-0.9997100830078125,1047656.293576167,-0.09173578023910522,0.009208145551383495,-0.01390489656478167,1047656.275936167,14.40797424316406,52.35462951660156,-110.3692016601562,1047656.282369167,-0.3237580637717927,0.04098299525384475,0.1347329351153,-0.09509708732366562,0.004915563855320215,-0.002162907272577286,-0.00317041203379631,0.009386748075485229,-0.007743358612060547,2,0.06971646068554202,0.009329146300036902,-0.1594123490589966,0.9847031258019103,0.04060021042823792,-0.1343256682157516,-0.990105152130127,3.037289619445801,17.76324844360352,-39.96484375,-1,2,1047654.398757167,1,2,1617673451.987926,0,0,0,0,0,0,0,0,0,1047653.848752,0,-0.1770325,98.1575,1617673453.012811,587422867,1685438189,0,0,1,1617673452.00491,1,0.12,1617673453.914949,-25.12798,-29.97152,0
1617673453.948419,59,0,0,0,0,0,0,0,0,0,1617673453.938602,2.979167938232422,17.96266555786133,-39.99710083007812,348.437255859375,355.4668273925781,15.83586502075195,1047656.348366792,0.0344390869140625,-0.1325531005859375,-1.001907348632812,1047656.327196792,-0.05388480424880981,0.01422847062349319,-0.02517139911651611,1047656.335919792,14.41693115234375,52.58055114746094,-110.397705078125,1047656.282369167,-0.3237580637717927,0.04098299525384475,0.1347329351153,-0.09509708732366562,0.004915563855320215,-0.002162907272577286,-0.00317041203379631,0.009386748075485229,-0.007743358612060547,2,0.06971646068554202,0.009329146300036902,-0.1594123490589966,0.9847031258019103,0.04060021042823792,-0.1343256682157516,-0.990105152130127,3.037289619445801,17.76324844360352,-39.96484375,-1,2,1047654.398757167,1,2,1617673451.987926,0,0,0,0,0,0,0,0,0,1047653.848752,0,-0.1770325,98.1575,1617673453.012811,587422867,1685438189,0,0,1,1617673452.00491,1,0.12,1617673453.941435,-25.51034,-30.40759,0
1617673453.988452,60,0,0,0,0,0,0,0,0,0,1617673453.978457,2.954867362976074,18.21827697753906,-40.03187561035156,348.4947204589844,355.5242919921875,15.83599662780762,1047656.381989792,0.0435791015625,-0.13525390625,-1.005905151367188,1047656.360820792,-0.009751164354383945,0.03762780129909515,-0.02786491997539997,1047656.335919792,14.41693115234375,52.58055114746094,-110.397705078125,1047656.342141792,-0.3245759480352322,0.04150564295290488,0.1305458065693955,-0.03885284811258316,0.01348268054425716,-0.01858694106340408,-0.006487958133220673,-0.002393007278442383,-0.01418471336364746,2,0.06770142402941551,0.009898240856880219,-0.1598619826247452,0.9847653207182181,0.04114065691828728,-0.1301753222942352,-0.9906370639801025,3.008997917175293,18.04969024658203,-39.93939971923828,-1,2,1047654.398757167,1,2,1617673451.987926,0,0,0,0,0,0,0,0,0,1047653.848752,0,-0.1770325,98.1575,1617673453.012811,587422867,1685438189,0,0,1,1617673452.00491,1,0.12,1617673453.974772,-24.30273,-30.47537,0
1617673454.021775,61,0,0,0,0,0,0,0,0,0,1617673454.018337,2.956839561462402,18.28777694702148,-39.90013122558594,348.5698547363281,355.5994262695312,15.8361349105835,1047656.415610792,0.0507354736328125,-0.1439208984375,-1.013442993164062,1047656.394441792,-0.01169953308999538,0.02383742295205593,-0.03782354667782784,1047656.395909792,14.41531372070312,52.82206726074219,-110.2303619384766,1047656.401913792,-0.3263277512642237,0.04289266979496276,0.1287613178934774,-0.01505568251013756,0.008563128300011158,-0.03469711542129517,0.006669770926237106,-0.01273795962333679,-0.02148902416229248,2,0.06694337215330232,0.0106676081702567,-0.1607057030109963,0.9846718219283391,0.0425245501101017,-0.1284058094024658,-0.9908095598220825,2.97517204284668,18.23286819458008,-39.84934234619141,-1,2,1047654.398757167,1,2,1617673451.987926,0,0,0,0,0,0,0,0,0,1047653.848752,0,-0.1770325,98.1575,1617673453.012811,587422867,1685438189,0,0,1,1617673452.00491,1,0.12,1617673454.007077,-24.30273,-31.02563,0
1617673454.048285,62,0,0,0,0,0,0,0,0,0,1617673454.03854,2.897345542907715,18.22665023803711,-39.93762969970703,348.59765625,355.6272277832031,15.83622074127197,1047656.449231792,0.0518646240234375,-0.1520538330078125,-1.0050048828125,1047656.428062792,0.04957554116845131,-0.02052338421344757,-0.02665957435965538,1047656.395909792,14.41531372070312,52.82206726074219,-110.2303619384766,1047656.401913792,-0.3263277512642237,0.04289266979496276,0.1287613178934774,-0.01505568251013756,0.008563128300011158,-0.03469711542129517,0.006669770926237106,-0.01273795962333679,-0.02148902416229248,2,0.06694337215330232,0.0106676081702567,-0.1607057030109963,0.9846718219283391,0.0425245501101017,-0.1284058094024658,-0.9908095598220825,2.97517204284668,18.23286819458008,-39.84934234619141,-1,2,1047654.398757167,1,2,1617673451.987926,0,0,0,0,0,0,0,0,0,1047653.848752,0,-0.1770325,98.1575,1617673453.012811,587422867,1685438189,0,0,1,1617673452.00491,1,0.12,1617673454.041625,-24.30273,-30.20617,0
1617673454.096865,63,0,0,0,0,0,0,0,0,0,1617673454.078256,2.790971755981445,18.21085357666016,-39.97732543945312,348.5835876464844,355.6131591796875,15.8364200592041,1047656.482855792,0.047271728515625,-0.16864013671875,-0.992584228515625,1047656.461686792,0.08153214305639267,-0.03729597106575966,0.01315708085894585,1047656.455895792,14.40007019042969,52.64794921875,-110.2122497558594,1047656.461686792,-0.3274529957105672,0.04103833527190735,0.1311713970624135,0.07020695507526398,-0.04259470477700233,0.01507137063890696,0.008306331932544708,-0.02981841564178467,-0.002909839153289795,2,0.06798572328661021,0.009519522001881876,-0.161284585174476,0.9845175129885786,0.0406743697822094,-0.1307955682277679,-0.9905746579170227,2.896969795227051,18.08248519897461,-39.88516998291016,-1,2,1047654.398757167,1,2,1617673451.987926,0,0,0,0,0,0,0,0,0,1047653.848752,0,-0.1770325,98.1575,1617673453.012811,587422867,1685438189,0,0,1,1617673452.00491,1,0.12,1617673454.082796,-23.51879,-26.68168,0
1617673454.117757,64,0,0,0,0,0,0,0,0,0,1617673454.098208,2.869318962097168,18.03585052490234,-40.09990692138672,348.5175476074219,355.547119140625,15.83651733398438,1047656.516476792,0.0391082763671875,-0.1519012451171875,-0.9815216064453125,1047656.495307792,0.03906857222318649,-0.04936595261096954,0.07036764174699783,1047656.515884792,14.34019470214844,52.4554443359375,-110.2938079833984,1047656.461686792,-0.3274529957105672,0.04103833527190735,0.1311713970624135,0.07020695507526398,-0.04259470477700233,0.01507137063890696,0.008306331932544708,-0.02981841564178467,-0.002909839153289795,2,0.06798572328661021,0.009519522001881876,-0.161284585174476,0.9845175129885786,0.0406743697822094,-0.1307955682277679,-0.9905746579170227,2.896969795227051,18.08248519897461,-39.88516998291016,-1,2,1047654.398757167,1,2,1617673451.987926,0,0,0,0,0,0,0,0,0,1047653.848752,0,-0.1770325,98.1575,1617673453.012811,587422867,1685438189,0,0,1,1617673452.00491,1,0.12,1617673454.108144,-23.51879,-27.27284,0
1617673454.157328,65,0,0,0,0,0,0,0,0,0,1617673454.138081,2.845580101013184,17.9626350402832,-40.04784393310547,348.3262634277344,355.3558349609375,15.83669662475586,1047656.550099792,0.0333099365234375,-0.123291015625,-0.9964141845703125,1047656.528928792,0.007429154124110937,-0.01065610628575087,0.08585232496261597,1047656.515884792,14.34019470214844,52.4554443359375,-110.2938079833984,1047656.521458792,-0.3238520053409673,0.03882065084143292,0.1338854906317422,-0.0003172354772686958,-0.0226389467716217,0.09038148075342178,-0.0008354112505912781,-0.01489058136940002,0.007149755954742432,2,0.06912738549404837,0.008329931081565073,-0.1595465628651602,0.9847318946236392,0.03846357017755508,-0.1334858536720276,-0.9903040528297424,2.874363899230957,17.93796539306641,-39.92317962646484,-1,2,1047654.398757167,1,2,1617673451.987926,0,0,0,0,0,0,0,0,0,1047653.848752,0,-0.1770325,98.1575,1617673453.012811,587422867,1685438189,0,0,1,1617673452.00491,1,0.12,1617673454.155875,-23.51879,-27.89062,0
1617673454.187886,66,0,0,0,0,0,0,0,0,0,1617673454.177684,2.842822074890137,18.09012603759766,-39.94526672363281,348.2016906738281,355.2312622070312,15.836838722229,1047656.583721792,0.0260162353515625,-0.1144256591796875,-0.9893341064453125,1047656.562551792,0.03875165805220604,-0.01162416581064463,0.04495362564921379,1047656.575870792,14.28021240234375,52.70928955078125,-110.353271484375,1047656.521458792,-0.3238520053409673,0.03882065084143292,0.1338854906317422,-0.0003172354772686958,-0.0226389467716217,0.09038148075342178,-0.0008354112505912781,-0.01489058136940002,0.007149755954742432,2,0.06912738549404837,0.008329931081565073,-0.1595465628651602,0.9847318946236392,0.03846357017755508,-0.1334858536720276,-0.9903040528297424,2.874363899230957,17.93796539306641,-39.92317962646484,-1,2,1047654.398757167,1,2,1617673451.987926,0,0,0,0,0,0,0,0,0,1047653.848752,0,-0.1770325,98.1575,1617673453.012811,587422867,1685438189,0,0,1,1617673452.00491,1,0.12,1617673454.174015,-23.43094,-28.23605,0
1617673454.217139,67,0,0,0,0,0,0,0,0,0,1617673454.19767,2.875184059143066,18.07480239868164,-40.07721710205078,348.1893920898438,355.2189636230469,15.83690547943115,1047656.617342792,0.0289306640625,-0.1268310546875,-0.994720458984375,1047656.596173792,0.06015601381659508,0.01758618466556072,-0.005671467632055283,1047656.575870792,14.28021240234375,52.70928955078125,-110.353271484375,1047656.581231792,-0.3202583492573688,0.03795539150378874,0.1366030695730735,0.04076525568962097,0.01263258047401905,0.02256756462156773,-0.01093569025397301,0.02131049335002899,0.002132058143615723,2,0.07038186108000681,0.007810140392741194,-0.1577667611537447,0.9849340451084998,0.03759278357028961,-0.1361786276102066,-0.9899708032608032,2.882035255432129,18.08111953735352,-40.00357055664062,-1,2,1047654.398757167,1,2,1617673451.987926,0,0,0,0,0,0,0,0,0,1047653.848752,0,-0.1770325,98.1575,1617673453.012811,587422867,1685438189,0,0,1,1617673452.00491,1,0.12,1617673454.213882,-23.43094,-29.23953,0
1617673454.263225,68,0,0,0,0,0,0,0,0,0,1617673454.257381,2.893141746520996,18.02118301391602,-40.29552459716797,348.2271118164062,355.2566833496094,15.83710384368896,1047656.650965792,0.0373077392578125,-0.1382904052734375,-1.0057373046875,1047656.629796792,0.0463845431804657,0.03926831111311913,-0.01683703623712063,1047656.635855792,14.30931091308594,52.58831787109375,-110.6291046142578,1047656.641003792,-0.3207935120898474,0.0392366136238574,0.1389935974384784,0.03187291324138641,0.03773530200123787,-0.004724585451185703,-0.004912707954645157,0.001232683658599854,-0.01055890321731567,2,0.0716618061512975,0.008230239026130914,-0.1579489503849276,0.9848091406094375,0.03884824365377426,-0.1385464817285538,-0.9895936846733093,2.911763191223145,18.02773284912109,-40.24468994140625,-1,2,1047654.398757167,1,2,1617673451.987926,0,0,0,0,0,0,0,0,0,1047653.848752,0,-0.1770325,98.1575,1617673453.012811,587422867,1685438189,0,0,1,1617673452.00491,1,0.12,1617673454.241312,-23.43094,-29.56749,0
1617673454.28728,69,0,0,0,0,0,0,0,0,0,1617673454.277336,2.977594375610352,17.9589729309082,-40.27952575683594,348.2259216308594,355.2554931640625,15.8371696472168,1047656.684587792,0.0390777587890625,-0.134307861328125,-1.004837036132812,1047656.663417792,0.05985428020358086,-6.950850365683436e-05,0.0008074704091995955,1047656.635855792,14.30931091308594,52.58831787109375,-110.6291046142578,1047656.641003792,-0.3207935120898474,0.0392366136238574,0.1389935974384784,0.03187291324138641,0.03773530200123787,-0.004724585451185703,-0.004912707954645157,0.001232683658599854,-0.01055890321731567,2,0.0716618061512975,0.008230239026130914,-0.1579489503849276,0.9848091406094375,0.03884824365377426,-0.1385464817285538,-0.9895936846733093,2.911763191223145,18.02773284912109,-40.24468994140625,-1,2,1047654.398757167,1,2,1617673451.987926,0,0,0,0,0,0,0,0,0,1047653.848752,0,-0.1770325,98.1575,1617673453.012811,587422867,1685438189,0,0,1,1617673452.00491,1,0.12,1617673454.276075,-23.43094,-29.97788,0
1617673454.323354,70,0,0,0,0,0,0,0,0,0,1617673454.317222,2.944695472717285,17.9102897644043,-40.15199279785156,348.2344665527344,355.2640380859375,15.83730697631836,1047656.718208792,0.03839111328125,-0.1357879638671875,-0.99029541015625,1047656.697039792,0.04523006081581116,-0.01068353652954102,-0.00660650385543704,1047656.695844792,14.38764953613281,52.47978210449219,-110.5567474365234,1047656.700776792,-0.3208296069994287,0.03835637443493338,0.1404181663035592,0.03005365096032619,-0.01549413334578276,-0.005409521982073784,-0.0003871582448482513,0.005206853151321411,-0.009029567241668701,2,0.07229357150359531,0.007681097132568145,-0.1579768666482961,0.9847628616766435,0.03796954080462456,-0.1399571746587753,-0.9894292950630188,2.967597961425781,17.89633178710938,-40.14463043212891,-1,2,1047654.398757167,1,2,1617673451.987926,0,0,0,0,0,0,0,0,0,1047653.848752,0,-0.1770325,98.1575,1617673453.012811,587422867,1685438189,0,0,1,1617673452.00491,1,0.12,1617673454.308014,-23.43094,-30.90842,0
1617673454.356555,71,0,0,0,0,0,0,0,0,0,1617673454.337186,2.994359970092773,17.91608047485352,-40.24782562255859,348.2444152832031,355.2739868164062,15.83737468719482,1047656.751831792,0.0440216064453125,-0.1324310302734375,-0.9931640625,1047656.730662792,0.02354021370410919,0.009150088764727116,-0.01011947914958,1047656.755829792,14.47024536132812,52.53569030761719,-110.4214782714844,1047656.700776792,-0.3208296069994287,0.03835637443493338,0.1404181663035592,0.03005365096032619,-0.01549413334578276,-0.005409521982073784,-0.0003871582448482513,0.005206853151321411,-0.009029567241668701,2,0.07229357150359531,0.007681097132568145,-0.1579768666482961,0.9847628616766435,0.03796954080462456,-0.1399571746587753,-0.9894292950630188,2.967597961425781,17.89633178710938,-40.14463043212891,-1,2,1047654.398757167,1,2,1617673451.987926,0,0,0,0,0,0,0,0,0,1047653.848752,0,-0.1770325,98.1575,1617673453.012811,587422867,1685438189,0,0,1,1617673452.00491,1,0.12,1617673454.341594,-23.43094,-29.978,0
1617673454.392041,72,0,0,0,0,0,0,0,0,0,1617673454.377044,2.99348258972168,17.89400100708008,-40.11962127685547,348.2919311523438,355.3215026855469,15.83751201629639,1047656.785452792,0.0458984375,-0.1412353515625,-0.982666015625,1047656.764283792,0.06082366779446602,0.005524993874132633,-0.02176867797970772,1047656.755829792,14.47024536132812,52.53569030761719,-110.4214782714844,1047656.760548792,-0.3215953276393449,0.03802539847708997,0.1414008525349172,0.04609395936131477,-0.0003265030682086945,-0.02192645892500877,0.006461076438426971,0.007003769278526306,0.000305473804473877,2,0.0727539040624425,0.007411356206138631,-0.1583510991523234,0.9846709843918482,0.03763681650161743,-0.1409301310777664,-0.9893038868904114,3.031584739685059,17.90990447998047,-39.998291015625,-1,2,1047654.398757167,1,2,1617673451.987926,0,0,0,0,0,0,0,0,0,1047653.848752,0,-0.1770325,98.1575,1617673453.012811,587422867,1685438189,0,0,1,1617673452.00491,1,0.12,1617673454.382499,-23.43094,-30.41336,0
1617673454.426552,73,0,0,0,0,0,0,0,0,0,1617673454.416818,2.980921745300293,17.58884048461914,-39.53352355957031,348.3246154785156,355.3541870117188,15.83765029907227,1047656.819076792,0.04522705078125,-0.1415557861328125,-0.9832305908203125,1047656.797904792,0.07244890183210373,0.04420075193047523,-0.01321726851165295,1047656.815817792,14.44459533691406,52.13323974609375,-109.8537750244141,1047656.760548792,-0.3215953276393449,0.03802539847708997,0.1414008525349172,0.04609395936131477,-0.0003265030682086945,-0.02192645892500877,0.006461076438426971,0.007003769278526306,0.000305473804473877,2,0.0727539040624425,0.007411356206138631,-0.1583510991523234,0.9846709843918482,0.03763681650161743,-0.1409301310777664,-0.9893038868904114,3.031584739685059,17.90990447998047,-39.998291015625,-1,2,1047654.398757167,1,2,1617673451.987926,0,0,0,0,0,0,0,0,0,1047653.848752,0,-0.1770325,98.1575,1617673453.012811,587422867,1685438189,0,0,1,1617673452.00491,1,0.12,1617673454.408064,-23.43094,-30.51793,0
1617673454.456762,74,0,0,0,0,0,0,0,0,0,1617673454.436636,3.087079048156738,17.52182006835938,-39.66399383544922,348.3392028808594,355.3687744140625,15.83771800994873,1047656.852697792,0.0451812744140625,-0.143218994140625,-0.9814453125,1047656.831528792,0.07011543959379196,0.03258723765611649,-0.01593076251447201,1047656.815817792,14.44459533691406,52.13323974609375,-109.8537750244141,1047656.820321792,-0.3225590837690676,0.03997297102847774,0.1444110148027813,0.06028636917471886,0.04552898555994034,-0.006526568904519081,0.005680687725543976,0.002353847026824951,0.005569756031036377,2,0.0743932095275055,0.008091935816533641,-0.1587077772257313,0.9844857317942964,0.03954635187983513,-0.1439096033573151,-0.9888003468513489,3.081761360168457,17.51761627197266,-39.47944641113281,-1,2,1047654.398757167,1,2,1617673451.987926,0,0,0,0,0,0,0,0,0,1047653.848752,0,-0.1770325,98.1575,1617673453.012811,587422867,1685438189,0,0,1,1617673452.00491,1,0.12,1617673454.445383,-23.43094,-31.38678,0
1617673454.486557,75,0,0,0,0,0,0,0,0,0,1617673454.476507,3.07636833190918,17.32962799072266,-39.90816497802734,348.3570251464844,355.3865966796875,15.83785820007324,1047656.886318792,0.0386962890625,-0.154632568359375,-0.9863128662109375,1047656.865149792,0.03990933299064636,0.03485731780529022,-0.0001794970594346523,1047656.875805792,14.47459411621094,51.96170043945312,-110.4407043457031,1047656.820321792,-0.3225590837690676,0.03997297102847774,0.1444110148027813,0.06028636917471886,0.04552898555994034,-0.006526568904519081,0.005680687725543976,0.002353847026824951,0.005569756031036377,2,0.0743932095275055,0.008091935816533641,-0.1587077772257313,0.9844857317942964,0.03954635187983513,-0.1439096033573151,-0.9888003468513489,3.081761360168457,17.51761627197266,-39.47944641113281,-1,2,1047654.398757167,1,2,1617673451.987926,0,0,0,0,0,0,0,0,0,1047653.848752,0,-0.1770325,98.1575,1617673453.012811,587422867,1685438189,0,0,1,1617673452.00491,1,0.12,1617673454.473879,-23.43094,-31.54585,0
1617673454.526097,76,0,0,0,0,0,0,0,0,0,1617673454.516281,3.183321952819824,17.36398315429688,-40.39136505126953,348.268798828125,355.2983703613281,15.83799839019775,1047656.919942792,0.032745361328125,-0.1442413330078125,-0.9888916015625,1047656.898772792,0.03430018201470375,0.01264042779803276,0.04139697551727295,1047656.875805792,14.47459411621094,51.96170043945312,-110.4407043457031,1047656.880093792,-0.3229785378700069,0.04189865403952403,0.1464696095519064,0.02227164804935455,0.03372582793235779,0.02549375407397747,-0.002177044749259949,-0.007572174072265625,0.008321762084960938,2,0.07556063615999985,0.008857627460595426,-0.1588093163661322,0.9843737134002404,0.04143789783120155,-0.1459464579820633,-0.9884242415428162,3.097988128662109,17.38844299316406,-40.19664764404297,-1,2,1047654.398757167,1,2,1617673451.987926,0,0,0,0,0,0,0,0,0,1047653.848752,0,-0.1770325,98.1575,1617673453.012811,587422867,1685438189,0,0,1,1617673452.00491,1,0.12,1617673454.515989,-23.43094,-28.76773,0
1617673454.562426,77,0,0,0,0,0,0,0,0,0,1617673454.55629,3.215353012084961,17.28351211547852,-40.35047149658203,348.1711730957031,355.2007446289062,15.83813858032227,1047656.953563792,0.029449462890625,-0.130462646484375,-0.99005126953125,1047656.932394792,0.03404318913817406,0.03907336667180061,0.04454988986253738,1047656.935789792,14.66639709472656,51.92825317382812,-110.4305725097656,1047656.939866792,-0.3203279677962825,0.04279165823398414,0.1476568185490874,0.02184753492474556,0.04366641864180565,0.04136878997087479,-0.01258900016546249,0.0129351019859314,0.006096363067626953,2,0.07620328283486452,0.009302066398660165,-0.1574513822417212,0.9845382977097317,0.0423131063580513,-0.1471208482980728,-0.988213062286377,3.215082168579102,17.24142837524414,-40.18901062011719,-1,2,1047654.398757167,1,2,1617673451.987926,0,0,0,0,0,0,0,0,0,1047653.848752,0,-0.1770325,98.1575,1617673453.012811,587422867,1685438189,0,0,1,1617673452.00491,1,0.12,1617673454.540783,-23.43094,-28.83819,0
1617673454.586088,78,0,0,0,0,0,0,0,0,0,1617673454.576159,3.20632266998291,17.25385665893555,-40.47591400146484,348.1513061523438,355.1808776855469,15.838210105896,1047656.987184792,0.03326416015625,-0.1411285400390625,-0.992645263671875,1047656.966015792,0.03697346523404121,0.03663124889135361,0.01366414688527584,1047656.935789792,14.66639709472656,51.92825317382812,-110.4305725097656,1047656.939866792,-0.3203279677962825,0.04279165823398414,0.1476568185490874,0.02184753492474556,0.04366641864180565,0.04136878997087479,-0.01258900016546249,0.0129351019859314,0.006096363067626953,2,0.07620328283486452,0.009302066398660165,-0.1574513822417212,0.9845382977097317,0.0423131063580513,-0.1471208482980728,-0.988213062286377,3.215082168579102,17.24142837524414,-40.18901062011719,-1,2,1047654.398757167,1,2,1617673451.987926,0,0,0,0,0,0,0,0,0,1047653.848752,0,-0.1770325,98.1575,1617673453.012811,587422867,1685438189,0,0,1,1617673452.00491,1,0.12,1617673454.573924,-23.43094,-29.46311,0
1617673454.633009,79,0,0,0,0,0,0,0,0,0,1617673454.616116,3.384652137756348,17.43503952026367,-40.41548919677734,348.1300354003906,355.1596069335938,15.83835124969482,1047657.020807792,0.0428466796875,-0.153717041015625,-0.996673583984375,1047656.999638792,0.06782644987106323,0.0162426196038723,0.005224322900176048,1047656.995778792,14.85479736328125,51.92991638183594,-110.6735534667969,1047656.999638792,-0.3192449129808329,0.0444133518726896,0.1497777753117882,0.05650481581687927,0.01094481348991394,0.007137269712984562,-0.003481153398752213,0.005694270133972168,-0.01139259338378906,2,0.07736901652771874,0.009971928190404242,-0.1568206692979209,0.9845414558968041,0.04390167444944382,-0.1492183953523636,-0.9878292083740234,3.356159210205078,17.37003326416016,-40.33069610595703,-1,2,1047654.398757167,1,2,1617673451.987926,0,0,0,0,0,0,0,0,0,1047653.848752,0,-0.1770325,98.1575,1617673453.012811,587422867,1685438189,0,0,1,1617673452.00491,1,0.12,1617673454.608046,-23.43094,-29.2359,0
1617673454.655503,80,0,0,0,0,0,0,0,0,0,1617673454.636016,3.379490852355957,17.33830261230469,-40.28562927246094,348.08837890625,355.1179504394531,15.83842372894287,1047657.054429792,0.047821044921875,-0.1419219970703125,-1.020736694335938,1047657.033259792,0.0418824702501297,0.03012993931770325,0.04481087997555733,1047657.055770792,14.89262390136719,51.8216552734375,-110.6378326416016,1047656.999638792,-0.3192449129808329,0.0444133518726896,0.1497777753117882,0.05650481581687927,0.01094481348991394,0.007137269712984562,-0.003481153398752213,0.005694270133972168,-0.01139259338378906,2,0.07736901652771874,0.009971928190404242,-0.1568206692979209,0.9845414558968041,0.04390167444944382,-0.1492183953523636,-0.9878292083740234,3.356159210205078,17.37003326416016,-40.33069610595703,-1,2,1047654.398757167,1,2,1617673451.987926,0,0,0,0,0,0,0,0,0,1047653.848752,0,-0.1770325,98.1575,1617673453.012811,587422867,1685438189,0,0,1,1617673452.00491,1,0.12,1617673454.64165,-23.43094,-29.83837,0
1617673454.699701,81,0,0,0,0,0,0,0,0,0,1617673454.695696,3.364099502563477,17.23171997070312,-40.53018188476562,347.9948425292969,355.0244140625,15.83863830566406,1047657.088052792,0.039794921875,-0.1334686279296875,-0.9932403564453125,1047657.066881792,0.008163121528923512,-0.07128829509019852,0.02613999135792255,1047657.055770792,14.89262390136719,51.8216552734375,-110.6378326416016,1047657.059411792,-0.3172634870849611,0.04284582760355906,0.151085790857697,0.004274753853678703,-0.07562442868947983,0.03405442461371422,0.005110044032335281,0.009810388088226318,-0.0324864387512207,2,0.07788058765202974,0.009172767171371707,-0.1558842241166273,0.9846575814392382,0.04234477877616882,-0.1505116373300552,-0.9877009391784668,3.476315498352051,17.2602653503418,-40.19964599609375,-1,2,1047654.398757167,1,2,1617673451.987926,0,0,0,0,0,0,0,0,0,1047653.848752,0,-0.1770325,98.1575,1617673453.012811,587422867,1685438189,0,0,1,1617673452.00491,1,0.12,1617673454.683415,-23.43094,-30.60493,0
1617673454.725831,82,0,0,0,0,0,0,0,0,0,1617673454.715597,3.362909317016602,17.18963623046875,-40.44628143310547,348.0069885253906,355.0365600585938,15.83871173858643,1047657.121673792,0.0409698486328125,-0.15167236328125,-0.9917144775390625,1047657.100504792,0.01533235050737858,-0.0532645545899868,-0.01176770962774754,1047657.115763792,14.8087158203125,51.80316162109375,-110.8660583496094,1047657.059411792,-0.3172634870849611,0.04284582760355906,0.151085790857697,0.004274753853678703,-0.07562442868947983,0.03405442461371422,0.005110044032335281,0.009810388088226318,-0.0324864387512207,2,0.07788058765202974,0.009172767171371707,-0.1558842241166273,0.9846575814392382,0.04234477877616882,-0.1505116373300552,-0.9877009391784668,3.476315498352051,17.2602653503418,-40.19964599609375,-1,2,1047654.398757167,1,2,1617673451.987926,0,0,0,0,0,0,0,0,0,1047653.848752,0,-0.1770325,98.1575,1617673453.012811,587422867,1685438189,0,0,1,1617673452.00491,1,0.12,1617673454.707971,-23.43094,-30.79255,0
1617673454.755146,83,0,0,0,0,0,0,0,0,0,1617673454.735582,3.282876968383789,17.14390563964844,-40.43766784667969,348.0248107910156,355.0543823242188,15.83878326416016,1047657.155294792,0.042236328125,-0.171875,-0.9866790771484375,1047657.134125792,0.06441547721624374,-0.04028244316577911,-0.01112508866935968,1047657.115763792,14.8087158203125,51.80316162109375,-110.8660583496094,1047657.119183792,-0.3170434125508014,0.03893270073815931,0.151044936926951,0.02938568964600563,-0.03873710334300995,-0.0143863121047616,0.001605115830898285,-0.0001329481601715088,-0.0005227923393249512,2,0.07755453618310115,0.007257986862279391,-0.1559285822718811,0.9846923006189436,0.03847970440983772,-0.1504712551832199,-0.9878652095794678,3.309003829956055,17.13832473754883,-40.45225524902344,-1,2,1047654.398757167,1,2,1617673451.987926,0,0,0,0,0,0,0,0,0,1047653.848752,0,-0.1770325,98.1575,1617673453.012811,587422867,1685438189,0,0,1,1617673452.00491,1,0.12,1617673454.754349,-23.43094,-31.25746,0
1617673454.802872,84,0,0,0,0,0,0,0,0,0,1617673454.795328,3.232709884643555,17.03823471069336,-40.41452789306641,347.9230346679688,354.9526062011719,15.83900260925293,1047657.188918792,0.0423583984375,-0.1772918701171875,-0.9937744140625,1047657.167749792,0.05105279758572578,-0.002312156371772289,0.02958745323121548,1047657.175760792,14.72810363769531,51.68466186523438,-110.7813873291016,1047657.178956792,-0.3165991978248911,0.03743886946806847,0.1529198226761248,0.0188835933804512,-0.02413193508982658,0.06580997258424759,0.009225524961948395,-0.02615749835968018,-0.007082521915435791,2,0.07835927628669473,0.006391061363863068,-0.1557392569291956,0.9846645680497395,0.03699333593249321,-0.1523245275020599,-0.9876379370689392,3.269621849060059,16.97676849365234,-40.39847564697266,-1,2,1047654.398757167,1,2,1617673451.987926,0,0,0,0,0,0,0,0,0,1047653.848752,0,-0.1770325,98.1575,1617673453.012811,587422867,1685438189,0,0,1,1617673452.00491,1,0.12,1617673454.774024,-23.43094,-26.8939,0
1617673454.825176,85,0,0,0,0,0,0,0,0,0,1617673454.815242,3.163442611694336,17.03620910644531,-40.44756317138672,347.8368530273438,354.8664245605469,15.83907604217529,1047657.222539792,0.034454345703125,-0.144195556640625,-1.004302978515625,1047657.201370792,-0.01618722639977932,-0.01556617673486471,0.071419857442379,1047657.175760792,14.72810363769531,51.68466186523438,-110.7813873291016,1047657.178956792,-0.3165991978248911,0.03743886946806847,0.1529198226761248,0.0188835933804512,-0.02413193508982658,0.06580997258424759,0.009225524961948395,-0.02615749835968018,-0.007082521915435791,2,0.07835927628669473,0.006391061363863068,-0.1557392569291956,0.9846645680497395,0.03699333593249321,-0.1523245275020599,-0.9876379370689392,3.269621849060059,16.97676849365234,-40.39847564697266,-1,2,1047654.398757167,1,2,1617673451.987926,0,0,0,0,0,0,0,0,0,1047653.848752,0,-0.1770325,98.1575,1617673453.012811,587422867,1685438189,0,0,1,1617673452.00491,1,0.12,1617673454.81757,-23.43094,-27.97863,0
1617673454.864165,86,0,0,0,0,0,0,0,0,0,1617673454.855171,3.283318519592285,17.05247497558594,-40.16925811767578,347.71728515625,354.7468566894531,15.83922290802002,1047657.256160792,0.02740478515625,-0.1239013671875,-1.004348754882812,1047657.234991792,-0.04673448204994202,-0.05865132808685303,0.04618880152702332,1047657.235752792,14.69290161132812,51.64999389648438,-110.5547790527344,1047657.238728792,-0.3123930412612284,0.03468534953523654,0.1514676556393494,-0.05718110874295235,-0.06581369042396545,0.03967529535293579,-0.006052602082490921,0.01973988115787506,-0.01225751638412476,2,0.07741911630459422,0.00531329422921456,-0.1537968011446793,0.9850505214194887,0.03428135067224503,-0.1508891433477402,-0.9879561066627502,3.283318519592285,17.05247497558594,-40.16925811767578,-1,2,1047654.398757167,1,2,1617673451.987926,0,0,0,0,0,0,0,0,0,1047654.797967,0,-0.179657,98.15755,1617673453.012811,587422867,1685438189,0,0,1,1617673452.00491,1,0.12,1617673454.840681,-23.43094,-28.55854,0
1617673454.895144,87,0,0,0,0,0,0,0,0,0,1617673454.875289,3.157940864562988,17.15684127807617,-40.40253448486328,347.7105102539062,354.7400817871094,15.83929634094238,1047657.289784792,0.0321197509765625,-0.1296234130859375,-0.9948883056640625,1047657.268614792,-0.04666177928447723,-0.06375581026077271,-0.001587776583619416,1047657.235752792,14.69290161132812,51.64999389648438,-110.5547790527344,1047657.238728792,-0.3123930412612284,0.03468534953523654,0.1514676556393494,-0.05718110874295235,-0.06581369042396545,0.03967529535293579,-0.006052602082490921,0.01973988115787506,-0.01225751638412476,2,0.07741911630459422,0.00531329422921456,-0.1537968011446793,0.9850505214194887,0.03428135067224503,-0.1508891433477402,-0.9879561066627502,3.283318519592285,17.05247497558594,-40.16925811767578,-1,2,1047654.398757167,1,2,1617673451.987926,0,0,0,0,0,0,0,0,0,1047654.797967,0,-0.179657,98.15755,1617673453.012811,587422867,1685438189,0,0,1,1617673452.00491,1,0.12,1617673454.877639,-23.43094,-29.20589,0
1617673454.9322,88,0,0,0,0,0,0,0,0,0,1617673454.915037,3.190593719482422,17.15083312988281,-40.27175140380859,347.7337036132812,354.7632751464844,15.83944416046143,1047657.323406125,0.035858154296875,-0.1393890380859375,-0.998077392578125,1047657.302237125,-0.01912336051464081,-0.01159886550158262,-0.01446655765175819,1047657.295751792,14.56622314453125,51.84556579589844,-110.6793670654297,1047657.298502125,-0.3120768776685141,0.03132441055393197,0.1493358881791895,-0.03494252637028694,-0.02710469253361225,-0.01591951958835125,0.001957742497324944,0.01715917885303497,-0.006549060344696045,2,0.07611033781713267,0.003836534170203576,-0.1537998410928642,0.9851589547418553,0.03097070753574371,-0.1487814486026764,-0.988385021686554,3.145041465759277,17.21976852416992,-40.26859283447266,-1,2,1047654.398757167,1,2,1617673451.987926,0,0,0,0,0,0,0,0,0,1047654.797967,0,-0.179657,98.15755,1617673453.012811,587422867,1685438189,0,0,1,1617673452.00491,1,0.12,1617673454.908082,-23.43094,-29.75569,0
1617673454.964853,89,0,0,0,0,0,0,0,0,0,1617673454.954957,3.053864479064941,17.30971908569336,-40.4146728515625,347.5418701171875,354.5714416503906,15.83959293365479,1047657.357029125,0.0013885498046875,-0.1474456787109375,-1.003173828125,1047657.335858125,0.04167314618825912,0.02502492628991604,0.06507540494203568,1047657.355750125,14.52423095703125,51.8861083984375,-110.8204345703125,1047657.298502125,-0.3120768776685141,0.03132441055393197,0.1493358881791895,-0.03494252637028694,-0.02710469253361225,-0.01591951958835125,0.001957742497324944,0.01715917885303497,-0.006549060344696045,2,0.07611033781713267,0.003836534170203576,-0.1537998410928642,0.9851589547418553,0.03097070753574371,-0.1487814486026764,-0.988385021686554,3.145041465759277,17.21976852416992,-40.26859283447266,-1,2,1047654.398757167,1,2,1617673451.987926,0,0,0,0,0,0,0,0,0,1047654.797967,0,-0.179657,98.15755,1617673453.012811,587422867,1685438189,0,0,1,1617673452.00491,1,0.12,1617673454.941588,-23.43094,-29.97561,0
1617673454.99444,90,0,0,0,0,0,0,0,0,0,1617673454.974836,3.103422164916992,17.27512741088867,-40.57691192626953,347.5395812988281,354.5691528320312,15.83966636657715,1047657.390650125,0.04217529296875,-0.158599853515625,-1.011337280273438,1047657.369481125,0.1764733046293259,0.07598984241485596,-0.05538975447416306,1047657.355750125,14.52423095703125,51.8861083984375,-110.8204345703125,1047657.358274125,-0.3083882451663661,0.0319588006186497,0.1495383486824811,0.1326434910297394,0.04510216042399406,0.05262910202145576,-0.03020821884274483,0.001536011695861816,-0.0148388147354126,2,0.07625105429751411,0.004273854901883867,-0.1519557318296829,0.9854324243637769,0.03159676119685173,-0.1489816457033157,-0.9883350133895874,3.077741622924805,17.28633499145508,-40.39054107666016,-1,2,1047654.398757167,1,2,1617673451.987926,0,0,0,0,0,0,0,0,0,1047654.797967,0,-0.179657,98.15755,1617673453.012811,587422867,1685438189,0,0,1,1617673452.00491,1,0.12,1617673454.983602,-23.43094,-30.55666,0
1617673455.024627,91,0,0,0,0,0,0,0,0,0,1617673455.014936,3.237093925476074,17.09392929077148,-40.58004760742188,347.5194702148438,354.5490417480469,15.83982849121094,1047657.424272125,0.027008056640625,-0.1590576171875,-0.986846923828125,1047657.403102125,0.08721932768821716,-0.03496171161532402,0.01132296212017536,1047657.415742125,14.67916870117188,51.68060302734375,-110.8608093261719,1047657.358274125,-0.3083882451663661,0.0319588006186497,0.1495383486824811,0.1326434910297394,0.04510216042399406,0.05262910202145576,-0.03020821884274483,0.001536011695861816,-0.0148388147354126,2,0.07625105429751411,0.004273854901883867,-0.1519557318296829,0.9854324243637769,0.03159676119685173,-0.1489816457033157,-0.9883350133895874,3.077741622924805,17.28633499145508,-40.39054107666016,-1,2,1047654.398757167,1,2,1617673451.987926,0,0,0,0,0,0,0,0,0,1047654.797967,0,-0.179657,98.15755,1617673453.012811,587422867,1685438189,0,0,1,1617673452.00491,1,0.12,1617673455.00749,-23.43094,-30.87711,0
1617673455.064267,92,0,0,0,0,0,0,0,0,0,1617673455.05465,3.284223556518555,16.94202423095703,-40.60222625732422,347.5283203125,354.5578918457031,15.83999443054199,1047657.457895125,0.0317535400390625,-0.1462249755859375,-0.992095947265625,1047657.436726125,-0.03294596448540688,0.01661759242415428,-0.0003382214636076242,1047657.415742125,14.67916870117188,51.68060302734375,-110.8608093261719,1047657.418047125,-0.3085429195261885,0.03258653613934659,0.1551105175319349,0.01951586455106735,-0.02027452178299427,-0.01070102863013744,-0.004586484283208847,-0.001333415508270264,-0.008288085460662842,2,0.07904322018536429,0.004147023522001358,-0.1519307120838445,0.9852167652849974,0.03218961879611015,-0.1544892936944962,-0.9874699711799622,3.240731239318848,17.07790374755859,-40.46649169921875,-1,2,1047654.398757167,1,2,1617673451.987926,0,0,0,0,0,0,0,0,0,1047654.797967,0,-0.179657,98.15755,1617673453.012811,587422867,1685438189,0,0,1,1617673452.00491,1,0.12,1617673455.053636,-20.91503,-31.15889,0
1617673455.102784,93,0,0,0,0,0,0,0,0,0,1617673455.094272,3.31114673614502,16.90910720825195,-40.29644775390625,347.5626525878906,354.5922241210938,15.84016132354736,1047657.491516125,0.0370025634765625,-0.1381988525390625,-1.007965087890625,1047657.470347125,-0.02439269050955772,0.04979551956057549,-0.01669402606785297,1047657.475732125,14.79666137695312,51.43882751464844,-110.4956665039062,1047657.477819125,-0.3089066814788541,0.03429784227769299,0.1522676984938873,-0.01498579606413841,0.04203621298074722,-0.01906629838049412,0.001521285623311996,0.01148226857185364,-0.01796525716781616,2,0.07777425426030754,0.005195464965006925,-0.1520830218649533,0.985289196778897,0.03389436006546021,-0.1516799777746201,-0.9878483414649963,3.334846496582031,16.83366012573242,-40.09186553955078,-1,2,1047654.398757167,1,2,1617673451.987926,0,0,0,0,0,0,0,0,0,1047654.797967,0,-0.179657,98.15755,1617673453.012811,587422867,1685438189,0,0,1,1617673452.00491,1,0.12,1617673455.074237,-20.91503,-30.93417,0
1617673455.12429,94,0,0,0,0,0,0,0,0,0,1617673455.114182,3.367330551147461,16.97190475463867,-40.60338592529297,347.5802307128906,354.6098022460938,15.84025192260742,1047657.525137125,0.0438385009765625,-0.1399078369140625,-1.016372680664062,1047657.503968125,0.06140237301588058,0.02617035061120987,-0.01307319104671478,1047657.475732125,14.79666137695312,51.43882751464844,-110.4956665039062,1047657.477819125,-0.3089066814788541,0.03429784227769299,0.1522676984938873,-0.01498579606413841,0.04203621298074722,-0.01906629838049412,0.001521285623311996,0.01148226857185364,-0.01796525716781616,2,0.07777425426030754,0.005195464965006925,-0.1520830218649533,0.985289196778897,0.03389436006546021,-0.1516799777746201,-0.9878483414649963,3.334846496582031,16.83366012573242,-40.09186553955078,-1,2,1047654.398757167,1,2,1617673451.987926,0,0,0,0,0,0,0,0,0,1047654.797967,0,-0.179657,98.15755,1617673453.012811,587422867,1685438189,0,0,1,1617673452.00491,1,0.12,1617673455.114194,-20.91503,-30.76085,0
1617673455.17359,95,0,0,0,0,0,0,0,0,0,1617673455.153985,3.367019653320312,16.89351654052734,-40.42276763916016,347.6290893554688,354.6586608886719,15.84045028686523,1047657.558761125,0.0364532470703125,-0.14215087890625,-0.9919281005859375,1047657.537592125,0.09469588100910187,-0.04441726580262184,-0.02135455794632435,1047657.535724125,14.81227111816406,51.50108337402344,-110.7978973388672,1047657.537592125,-0.3100130195255211,0.03416678034277369,0.1552410626986976,0.08336687833070755,-0.0497170016169548,-0.01943881623446941,0.00627446174621582,0.01426795125007629,-0.01902627944946289,2,0.07923111853154226,0.004857140927660458,-0.1525904835653577,0.9850963698867283,0.03374933451414108,-0.1546182632446289,-0.9873976707458496,3.370377540588379,16.90652465820312,-40.39894104003906,-1,2,1047654.398757167,1,2,1617673451.987926,0,0,0,0,0,0,0,0,0,1047654.797967,0,-0.179657,98.15755,1617673453.012811,587422867,1685438189,0,0,1,1617673452.00491,1,0.12,1617673455.141555,-20.91503,-25.30558,0
1617673455.193839,96,0,0,0,0,0,0,0,0,0,1617673455.174004,3.292316436767578,16.82781982421875,-40.59056091308594,347.6648254394531,354.6943969726562,15.84053421020508,1047657.592382125,0.0357208251953125,-0.15753173828125,-0.9704132080078125,1047657.571213125,0.08247143775224686,-0.05594369396567345,-0.03170812875032425,1047657.535724125,14.81227111816406,51.50108337402344,-110.7978973388672,1047657.537592125,-0.3100130195255211,0.03416678034277369,0.1552410626986976,0.08336687833070755,-0.0497170016169548,-0.01943881623446941,0.00627446174621582,0.01426795125007629,-0.01902627944946289,2,0.07923111853154226,0.004857140927660458,-0.1525904835653577,0.9850963698867283,0.03374933451414108,-0.1546182632446289,-0.9873976707458496,3.370377540588379,16.90652465820312,-40.39894104003906,-1,2,1047654.398757167,1,2,1617673451.987926,0,0,0,0,0,0,0,0,0,1047654.797967,0,-0.179657,98.15755,1617673453.012811,587422867,1685438189,0,0,1,1617673452.00491,1,0.12,1617673455.174141,-20.91503,-25.89391,0
1617673455.236754,97,0,0,0,0,0,0,0,0,0,1617673455.233773,3.17894172668457,16.74010467529297,-40.80906677246094,347.6697998046875,354.6993713378906,15.84075927734375,1047657.626005125,0.043487548828125,-0.1626129150390625,-0.9816436767578125,1047657.604834125,0.09968797862529755,0.01102681830525398,0.004256530199199915,1047657.595715125,14.59616088867188,51.36962890625,-111.0103607177734,1047657.597364125,-0.3115286252143317,0.0320262026441094,0.1586415990981482,0.07785524427890778,-0.001826472813263535,-0.003385208547115326,0.004620973020792007,-0.0008669495582580566,0.01664531230926514,2,0.08074457898197629,0.003477848858049172,-0.1533741666017227,0.9848576582414866,0.0316186361014843,-0.1579770147800446,-0.9869364500045776,3.192828178405762,16.7453498840332,-40.56998443603516,-1,2,1047654.398757167,1,2,1617673451.987926,0,0,0,0,0,0,0,0,0,1047654.797967,0,-0.179657,98.15755,1617673453.012811,587422867,1685438189,0,0,1,1617673452.00491,1,0.12,1617673455.208164,-20.91503,-26.63818,0
1617673455.263529,98,0,0,0,0,0,0,0,0,0,1617673455.254788,3.24636173248291,16.68804550170898,-40.76004028320312,347.6278686523438,354.6574401855469,15.84083652496338,1047657.659627125,0.0468902587890625,-0.158203125,-0.989715576171875,1047657.638457125,0.1191247925162315,0.02327602729201317,0.03813566640019417,1047657.655704125,14.74581909179688,51.20344543457031,-110.9379119873047,1047657.597364125,-0.3115286252143317,0.0320262026441094,0.1586415990981482,0.07785524427890778,-0.001826472813263535,-0.003385208547115326,0.004620973020792007,-0.0008669495582580566,0.01664531230926514,2,0.08074457898197629,0.003477848858049172,-0.1533741666017227,0.9848576582414866,0.0316186361014843,-0.1579770147800446,-0.9869364500045776,3.192828178405762,16.7453498840332,-40.56998443603516,-1,2,1047654.398757167,1,2,1617673451.987926,0,0,0,0,0,0,0,0,0,1047654.797967,0,-0.179657,98.15755,1617673453.012811,587422867,1685438189,0,0,1,1617673452.00491,1,0.12,1617673455.241432,-20.91503,-27.31701,0
1617673455.293378,99,0,0,0,0,0,0,0,0,0,1617673455.273579,3.35667896270752,16.54292297363281,-40.60385894775391,347.581298828125,354.6108703613281,15.84091091156006,1047657.693248125,0.0459442138671875,-0.158721923828125,-0.99591064453125,1047657.672079125,0.07034367322921753,0.004065847955644131,0.0383061096072197,1047657.655704125,14.74581909179688,51.20344543457031,-110.9379119873047,1047657.657137125,-0.3101492353510064,0.03283509219643529,0.1634761508215523,0.08354174345731735,0.001877866685390472,0.04581333696842194,0.0151701420545578,0.004790037870407104,-0.003732502460479736,2,0.08318362817814391,0.0035566481200889,-0.1525931047715873,0.9847756800950237,0.0323914960026741,-0.1627489924430847,-0.9861356616020203,3.291050910949707,16.62102890014648,-40.5728759765625,-1,2,1047654.398757167,1,2,1617673451.987926,0,0,0,0,0,0,0,0,0,1047654.797967,0,-0.179657,98.15755,1617673453.012811,587422867,1685438189,0,0,1,1617673452.00491,1,0.12,1617673455.282379,-20.91503,-27.81643,0
1617673455.333206,100,0,0,0,0,0,0,0,0,0,1617673455.313482,3.325347900390625,16.2500114440918,-40.82438659667969,347.5150146484375,354.5445861816406,15.84106349945068,1047657.726871125,0.0413818359375,-0.1698150634765625,-0.975921630859375,1047657.705702125,0.0276167131960392,-0.04876034706830978,0.02325418964028358,1047657.715698125,14.79141235351562,50.82928466796875,-111.1802368164062,1047657.716909125,-0.3082604914402527,0.03143956368097645,0.1657909043311575,0.001878785900771618,-0.02615932747721672,0.03104443475604057,0.01231633126735687,8.496642112731934e-05,0.004477500915527344,2,0.08421379383193678,0.002769426279486259,-0.1516885102271014,0.9848304822273997,0.03100336156785488,-0.1650324463844299,-0.9858007431030273,3.346147537231445,16.22869110107422,-40.76454162597656,-1,2,1047654.398757167,1,2,1617673451.987926,0,0,0,0,0,0,0,0,0,1047654.797967,0,-0.179657,98.15755,1617673453.012811,587422867,1685438189,0,0,1,1617673452.00491,1,0.12,1617673455.308288,-20.91503,-27.53502,0
1617673455.362967,101,0,0,0,0,0,0,0,0,0,1617673455.353429,3.216289520263672,16.30474472045898,-40.86244201660156,347.4222717285156,354.4518432617188,15.84121513366699,1047657.760492125,0.0452728271484375,-0.1624755859375,-1.00341796875,1047657.739323125,0.00914289802312851,0.006691724993288517,0.04782398045063019,1047657.715698125,14.79141235351562,50.82928466796875,-111.1802368164062,1047657.716909125,-0.3082604914402527,0.03143956368097645,0.1657909043311575,0.001878785900771618,-0.02615932747721672,0.03104443475604057,0.01231633126735687,8.496642112731934e-05,0.004477500915527344,2,0.08421379383193678,0.002769426279486259,-0.1516885102271014,0.9848304822273997,0.03100336156785488,-0.1650324463844299,-0.9858007431030273,3.346147537231445,16.22869110107422,-40.76454162597656,-1,2,1047654.398757167,1,2,1617673451.987926,0,0,0,0,0,0,0,0,0,1047654.797967,0,-0.179657,98.15755,1617673453.012811,587422867,1685438189,0,0,1,1617673452.00491,1,0.12,1617673455.353952,-20.91503,-27.86429,0
1617673455.393184,102,0,0,0,0,0,0,0,0,0,1617673455.373172,3.215128898620605,16.37593460083008,-40.74617004394531,347.3731994628906,354.4027709960938,15.84129238128662,1047657.794114125,0.0377960205078125,-0.162841796875,-0.981719970703125,1047657.772944125,0.02666410058736801,-0.03474359959363937,0.04035967215895653,1047657.775685125,14.63410949707031,50.89472961425781,-111.0455474853516,1047657.776681125,-0.3057420380279105,0.03062088405598284,0.1659016111341176,0.02033097483217716,-0.03418487310409546,0.03751471638679504,0.01089617609977722,0.005992501974105835,-0.003602862358093262,2,0.08420315283029151,0.002463791003245203,-0.1504811938146026,0.9850173819428132,0.03019573539495468,-0.1651416271924973,-0.9858075380325317,3.202245712280273,16.31134796142578,-40.64592742919922,-1,2,1047654.398757167,1,2,1617673451.987926,0,0,0,0,0,0,0,0,0,1047654.797967,0,-0.179657,98.15755,1617673453.012811,587422867,1685438189,0,0,1,1617673452.00491,1,0.12,1617673455.373894,-20.91503,-28.11363,0
1617673455.432679,103,0,0,0,0,0,0,0,0,0,1617673455.413185,3.195508003234863,16.29895401000977,-40.90799713134766,347.2911682128906,354.3207397460938,15.84144401550293,1047657.827737125,0.031585693359375,-0.1584320068359375,-0.9727020263671875,1047657.806568125,0.01460104715079069,-0.01479492522776127,0.03393452987074852,1047657.775685125,14.63410949707031,50.89472961425781,-111.0455474853516,1047657.776681125,-0.3057420380279105,0.03062088405598284,0.1659016111341176,0.02033097483217716,-0.03418487310409546,0.03751471638679504,0.01089617609977722,0.005992501974105835,-0.003602862358093262,2,0.08420315283029151,0.002463791003245203,-0.1504811938146026,0.9850173819428132,0.03019573539495468,-0.1651416271924973,-0.9858075380325317,3.202245712280273,16.31134796142578,-40.64592742919922,-1,2,1047654.398757167,1,2,1617673451.987926,0,0,0,0,0,0,0,0,0,1047654.797967,0,-0.179657,98.15755,1617673453.012811,587422867,1685438189,0,0,1,1617673452.00491,1,0.12,1617673455.414863,-20.91503,-28.54854,0
1617673455.463175,104,0,0,0,0,0,0,0,0,0,1617673455.453212,3.233237266540527,16.12526702880859,-40.79904174804688,347.2371520996094,354.2667236328125,15.84159755706787,1047657.861358125,0.0363922119140625,-0.144622802734375,-0.9836883544921875,1047657.840189125,-0.01120258681476116,0.02119689807295799,0.01751774176955223,1047657.835678125,14.66233825683594,50.75286865234375,-111.250244140625,1047657.836454125,-0.3037197733455167,0.03051656750594117,0.1661057091701808,-0.01925269141793251,0.02255840599536896,0.02538703754544258,0.00213468074798584,0.01135125756263733,0.01353269815444946,2,0.08429331753812766,0.002482035243352304,-0.1494867120458577,0.9851610400956667,0.03009187057614326,-0.1653429269790649,-0.985776960849762,3.207539558410645,16.15337753295898,-40.85297393798828,-1,2,1047654.398757167,1,2,1617673451.987926,0,0,0,0,0,0,0,0,0,1047654.797967,0,-0.179657,98.15755,1617673453.012811,587422867,1685438189,0,0,1,1617673452.00491,1,0.12,1617673455.441475,-20.91503,-29.35278,0
1617673455.50281,105,0,0,0,0,0,0,0,0,0,1617673455.493149,3.264377593994141,16.13181686401367,-40.89176940917969,347.2896423339844,354.3192138671875,15.84175109863281,1047657.894981125,0.03057861328125,-0.174896240234375,-0.95672607421875,1047657.873810125,-0.000883636821527034,-0.02396498806774616,-0.03144580870866776,1047657.895670125,14.75418090820312,50.8408203125,-111.2271118164062,1047657.836454125,-0.3037197733455167,0.03051656750594117,0.1661057091701808,-0.01925269141793251,0.02255840599536896,0.02538703754544258,0.00213468074798584,0.01135125756263733,0.01353269815444946,2,0.08429331753812766,0.002482035243352304,-0.1494867120458577,0.9851610400956667,0.03009187057614326,-0.1653429269790649,-0.985776960849762,3.207539558410645,16.15337753295898,-40.85297393798828,-1,2,1047654.398757167,1,2,1617673451.987926,0,0,0,0,0,0,0,0,0,1047654.797967,0,-0.179657,98.15755,1617673453.012811,587422867,1685438189,0,0,1,1617673452.00491,1,0.12,1617673455.480247,-20.91503,-28.58128,0
1617673455.532431,106,0,0,0,0,0,0,0,0,0,1617673455.512579,3.212616920471191,16.33219909667969,-40.76542663574219,347.2853698730469,354.31494140625,15.84182834625244,1047657.928603125,0.0323486328125,-0.1771240234375,-0.9730072021484375,1047657.907434125,-0.01879978738725185,0.06895190477371216,0.01523914001882076,1047657.895670125,14.75418090820312,50.8408203125,-111.2271118164062,1047657.896226125,-0.3045115967000985,0.0306244329624806,0.1649356644789311,-0.02498568966984749,0.0256323479115963,-0.005935524590313435,0.0003745034337043762,-0.01070733368396759,0.02924031019210815,2,0.08372628477270982,0.002590937794666501,-0.1498883540828417,0.9851480461762554,0.03020410425961018,-0.1641888618469238,-0.9859663844108582,3.302160263061523,16.20330429077148,-40.81725311279297,-1,2,1047654.398757167,1,2,1617673451.987926,0,0,0,0,0,0,0,0,0,1047654.797967,0,-0.179657,98.15755,1617673453.012811,587422867,1685438189,0,0,1,1617673452.00491,1,0.12,1617673455.508125,-20.91503,-28.90264,0
1617673455.562449,107,0,0,0,0,0,0,0,0,0,1617673455.552398,3.293368339538574,16.3929443359375,-40.69564056396484,347.1904907226562,354.2200622558594,15.84200096130371,1047657.962224125,0.0313262939453125,-0.1607818603515625,-0.9962921142578125,1047657.941055125,-0.01100311614573002,0.07002968341112137,0.0443810448050499,1047657.955664125,14.78158569335938,51.06446838378906,-111.0435333251953,1047657.896226125,-0.3045115967000985,0.0306244329624806,0.1649356644789311,-0.02498568966984749,0.0256323479115963,-0.005935524590313435,0.0003745034337043762,-0.01070733368396759,0.02924031019210815,2,0.08372628477270982,0.002590937794666501,-0.1498883540828417,0.9851480461762554,0.03020410425961018,-0.1641888618469238,-0.9859663844108582,3.302160263061523,16.20330429077148,-40.81725311279297,-1,2,1047654.398757167,1,2,1617673451.987926,0,0,0,0,0,0,0,0,0,1047654.797967,0,-0.179657,98.15755,1617673453.012811,587422867,1685438189,0,0,1,1617673452.00491,1,0.12,1617673455.541783,-20.91503,-30.03976,0
1617673455.602278,108,0,0,0,0,0,0,0,0,0,1617673455.59257,3.466859817504883,16.41515350341797,-40.78975677490234,347.1114196777344,354.1409912109375,15.8421573638916,1047657.995847125,0.015472412109375,-0.1462249755859375,-0.9788970947265625,1047657.974678125,-0.05774319171905518,-0.02493331208825111,0.03009665012359619,1047657.955664125,14.78158569335938,51.06446838378906,-111.0435333251953,1047657.955999125,-0.3024860344884454,0.03444756498091128,0.1627508202064529,-0.04071611911058426,0.02866088226437569,0.04591375216841698,-0.0007519982755184174,-0.0007016658782958984,-0.009314060211181641,2,0.08293213356749526,0.004724730974200481,-0.1487622154490439,0.9853780496857452,0.03398562967777252,-0.1620332896709442,-0.9861998558044434,3.330016136169434,16.43761825561523,-40.63010406494141,-1,2,1047654.398757167,1,2,1617673451.987926,0,0,0,0,0,0,0,0,0,1047654.797967,0,-0.179657,98.15755,1617673453.012811,587422867,1685438189,0,0,1,1617673452.00491,1,0.12,1617673455.582375,-20.91503,-30.92222,0
1617673455.631848,109,0,0,0,0,0,0,0,0,0,1617673455.61227,3.463288307189941,16.38601684570312,-40.62689208984375,347.1159057617188,354.1454772949219,15.84223651885986,1047658.029468125,0.00830078125,-0.1536712646484375,-0.9819488525390625,1047658.008299125,-0.1146560087800026,0.007049920037388802,-0.01934946328401566,1047658.015658125,14.83413696289062,51.10188293457031,-111.0638732910156,1047658.015771125,-0.3015156078539695,0.03309606816306784,0.1585765836432193,-0.1250268369913101,0.02694671973586082,-0.02473175898194313,-0.02882964164018631,0.01014673709869385,0.0218396782875061,2,0.0807735313235074,0.004414194514059624,-0.1483992938649669,0.9856133210728486,0.03267484903335571,-0.1579128056764603,-0.9869123101234436,3.415971755981445,16.4624137878418,-40.62509155273438,-1,2,1047654.398757167,1,2,1617673451.987926,0,0,0,0,0,0,0,0,0,1047654.797967,0,-0.179657,98.15755,1617673453.012811,587422867,1685438189,0,0,1,1617673452.00491,1,0.12,1617673455.608063,-20.91503,-28.04866,0
1617673455.662019,110,0,0,0,0,0,0,0,0,0,1617673455.652125,3.320827484130859,16.5608024597168,-40.64480590820312,347.1770324707031,354.2066040039062,15.84239387512207,1047658.063090125,0.0188446044921875,-0.15948486328125,-1.00860595703125,1047658.041920125,-0.05640788376331329,0.06320027261972427,-0.03295235708355904,1047658.015658125,14.83413696289062,51.10188293457031,-111.0638732910156,1047658.015771125,-0.3015156078539695,0.03309606816306784,0.1585765836432193,-0.1250268369913101,0.02694671973586082,-0.02473175898194313,-0.02882964164018631,0.01014673709869385,0.0218396782875061,2,0.0807735313235074,0.004414194514059624,-0.1483992938649669,0.9856133210728486,0.03267484903335571,-0.1579128056764603,-0.9869123101234436,3.415971755981445,16.4624137878418,-40.62509155273438,-1,2,1047654.398757167,1,2,1617673451.987926,0,0,0,0,0,0,0,0,0,1047654.797967,0,-0.179657,98.15755,1617673453.012811,587422867,1685438189,0,0,1,1617673452.00491,1,0.12,1617673455.652548,-20.91503,-28.71647,0
1617673455.702934,111,0,0,0,0,0,0,0,0,0,1617673455.692169,3.457358360290527,16.55939483642578,-40.61459350585938,347.2362976074219,354.265869140625,15.84254837036133,1047658.096713125,0.032318115234375,-0.1570281982421875,-1.022476196289062,1047658.075544125,0.03546691313385963,0.07535174489021301,-0.02883271314203739,1047658.075655125,14.91079711914062,51.12065124511719,-110.9584808349609,1047658.075544125,-0.3031061709482044,0.03652799198414877,0.1553326720108615,0.02414009161293507,0.07005257904529572,-0.02691780216991901,-0.01162034645676613,-0.001174986362457275,-0.0309484601020813,2,0.07943507085675983,0.006287395515271653,-0.1490926324776655,0.9856073742608034,0.03608017414808273,-0.1547087728977203,-0.9873010516166687,3.453559875488281,16.5291748046875,-40.54445648193359,-1,2,1047654.398757167,1,2,1617673451.987926,0,0,0,0,0,0,0,0,0,1047654.797967,0,-0.179657,98.15755,1617673453.012811,587422867,1685438189,0,0,1,1617673452.00491,1,0.12,1617673455.673862,-20.91503,-29.26851,0
1617673455.731965,112,0,0,0,0,0,0,0,0,0,1617673455.711871,3.439142227172852,16.56752014160156,-40.7442626953125,347.2603149414062,354.2898864746094,15.84262752532959,1047658.130334125,0.0398406982421875,-0.1643218994140625,-1.025894165039062,1047658.109165125,0.03044072911143303,0.0348874107003212,-0.02147706225514412,1047658.075655125,14.91079711914062,51.12065124511719,-110.9584808349609,1047658.075544125,-0.3031061709482044,0.03652799198414877,0.1553326720108615,0.02414009161293507,0.07005257904529572,-0.02691780216991901,-0.01162034645676613,-0.001174986362457275,-0.0309484601020813,2,0.07943507085675983,0.006287395515271653,-0.1490926324776655,0.9856073742608034,0.03608017414808273,-0.1547087728977203,-0.9873010516166687,3.453559875488281,16.5291748046875,-40.54445648193359,-1,2,1047654.398757167,1,2,1617673451.987926,0,0,0,0,0,0,0,0,0,1047654.797967,0,-0.179657,98.15755,1617673453.012811,587422867,1685438189,0,0,1,1617673452.00491,1,0.12,1617673455.714482,-20.91503,-29.80481,0
1617673455.780794,113,0,0,0,0,0,0,0,0,0,1617673455.771701,3.423954010009766,16.82020950317383,-40.67318725585938,347.2738952636719,354.303466796875,15.84295177459717,1047658.163957125,0.0370635986328125,-0.1443634033203125,-1.007431030273438,1047658.142786125,-0.04892573133111,-0.04519277811050415,-0.004678641445934772,1047658.135641125,14.92674255371094,51.19351196289062,-110.9608917236328,1047658.135316125,-0.304047170254015,0.03671158105905714,0.1559384451939579,-0.04742278531193733,-0.03571313992142677,-0.001406109542585909,0.004299864172935486,-0.008251696825027466,-0.03895294666290283,2,0.07975012183861085,0.006294337698702003,-0.149540010712655,0.9855140837269702,0.03625798597931862,-0.1553072184324265,-0.9872006177902222,3.497917175292969,16.58683013916016,-40.53643798828125,-1,2,1047654.398757167,1,2,1617673451.987926,0,0,0,0,0,0,0,0,0,1047654.797967,0,-0.179657,98.15755,1617673453.012811,587422867,1685438189,0,0,1,1617673452.00491,1,0.12,1617673455.741254,-20.91503,-30.28399,0
1617673455.801476,114,0,0,0,0,0,0,0,0,0,1617673455.792116,3.406219482421875,16.76344680786133,-40.60408782958984,347.3101806640625,354.3397521972656,15.84309864044189,1047658.197579125,0.0358734130859375,-0.1332855224609375,-0.9982452392578125,1047658.176410125,-0.03804458677768707,-0.04965676739811897,-0.02744973450899124,1047658.195632125,14.86026000976562,51.43699645996094,-110.8708953857422,1047658.135316125,-0.304047170254015,0.03671158105905714,0.1559384451939579,-0.04742278531193733,-0.03571313992142677,-0.001406109542585909,0.004299864172935486,-0.008251696825027466,-0.03895294666290283,2,0.07975012183861085,0.006294337698702003,-0.149540010712655,0.9855140837269702,0.03625798597931862,-0.1553072184324265,-0.9872006177902222,3.497917175292969,16.58683013916016,-40.53643798828125,-1,2,1047654.398757167,1,2,1617673451.987926,0,0,0,0,0,0,0,0,0,1047655.747138,0,-0.1902466,98.15765,1617673453.012811,587422867,1685438189,0,0,1,1617673452.00491,1,0.12,1617673455.781303,-20.91503,-30.816,0
1617673455.83219,115,0,0,0,0,0,0,0,0,0,1617673455.831328,3.291584968566895,16.86964797973633,-40.49214172363281,347.4537963867188,354.4833679199219,15.84339237213135,1047658.231200125,0.0321044921875,-0.143341064453125,-0.970428466796875,1047658.210031125,-0.01928474754095078,-0.05699937045574188,-0.06463757902383804,1047658.195632125,14.86026000976562,51.43699645996094,-110.8708953857422,1047658.195089125,-0.3050667041409454,0.03327406646179945,0.1525395922901827,-0.03166055679321289,-0.0756981372833252,-0.05522719025611877,0.004242990165948868,0.01936514675617218,-0.01386767625808716,2,0.07782117004826733,0.004819512536693576,-0.1502269692658406,0.9855722080923363,0.03288163244724274,-0.1519487202167511,-0.9878412485122681,3.418416976928711,16.8095703125,-40.48054504394531,-1,2,1047654.398757167,1,2,1617673451.987926,0,0,0,0,0,0,0,0,0,1047655.747138,0,-0.1902466,98.15765,1617673453.012811,587422867,1685438189,0,0,1,1617673452.00491,1,0.12,1617673455.808051,-20.91503,-30.98192,0
1617673455.870871,116,0,0,0,0,0,0,0,0,0,1617673455.851697,3.228144645690918,16.89602661132812,-40.47597503662109,347.5452270507812,354.5747985839844,15.84350681304932,1047658.264823125,0.03131103515625,-0.147674560546875,-0.9520721435546875,1047658.243654125,-0.04040201753377914,-0.003447728231549263,-0.08516762405633926,1047658.255621125,14.65016174316406,51.63687133789062,-110.803466796875,1047658.254861125,-0.309340974349068,0.03200953234111346,0.1497738403045537,-0.05136771500110626,0.02854721993207932,-0.08545514941215515,-0.002058994024991989,0.002302929759025574,0.03270143270492554,2,0.0763729349585366,0.004244298036734755,-0.1524200092302845,0.985351292715734,0.03164577484130859,-0.149214506149292,-0.9882982969284058,3.217432975769043,16.99029159545898,-40.39584350585938,-1,2,1047654.398757167,1,2,1617673451.987926,0,0,0,0,0,0,0,0,0,1047655.747138,0,-0.1902466,98.15765,1617673453.012811,587422867,1685438189,0,0,1,1617673452.00491,1,0.12,1617673455.841612,-20.91503,-31.34894,0
1617673455.90101,117,0,0,0,0,0,0,0,0,0,1617673455.891228,3.173923492431641,17.00231170654297,-40.59381866455078,347.7314147949219,354.760986328125,15.84366512298584,1047658.298444125,0.0440673828125,-0.15814208984375,-0.9654998779296875,1047658.277275125,-0.02260570973157883,0.1145228520035744,-0.08598814159631729,1047658.255621125,14.65016174316406,51.63687133789062,-110.803466796875,1047658.254861125,-0.309340974349068,0.03200953234111346,0.1497738403045537,-0.05136771500110626,0.02854721993207932,-0.08545514941215515,-0.002058994024991989,0.002302929759025574,0.03270143270492554,2,0.0763729349585366,0.004244298036734755,-0.1524200092302845,0.985351292715734,0.03164577484130859,-0.149214506149292,-0.9882982969284058,3.217432975769043,16.99029159545898,-40.39584350585938,-1,2,1047654.398757167,1,2,1617673451.987926,0,0,0,0,0,0,0,0,0,1047655.747138,0,-0.1902466,98.15765,1617673453.012811,587422867,1685438189,0,0,1,1617673452.00491,1,0.12,1617673455.8826,-20.91503,-31.59451,0
1617673455.930809,118,0,0,0,0,0,0,0,0,0,1617673455.911224,3.262688636779785,16.95414352416992,-40.34449768066406,347.7946472167969,354.82421875,15.84374237060547,1047658.332065875,0.056243896484375,-0.14739990234375,-0.9945831298828125,1047658.310896875,0.003867708845064044,0.1712425947189331,-0.05029459670186043,1047658.315617875,14.73878479003906,51.49661254882812,-110.7951354980469,1047658.314633875,-0.3135007684555577,0.04007796295782868,0.1473280188727593,-0.009837399236857891,0.16148342192173,-0.04780421778559685,0.01320799067616463,-0.006112650036811829,0.0005033016204833984,2,0.07580007407293948,0.008251368673983222,-0.1541980117698329,0.9850934554947306,0.03963318094611168,-0.1467956304550171,-0.9883725047111511,3.290664672851562,16.906494140625,-40.35246276855469,-1,2,1047654.398757167,1,2,1617673451.987926,0,0,0,0,0,0,0,0,0,1047655.747138,0,-0.1902466,98.15765,1617673453.012811,587422867,1685438189,0,0,1,1617673452.00491,1,0.12,1617673455.908224,-20.91503,-31.71552,0
1617673455.970645,119,0,0,0,0,0,0,0,0,0,1617673455.951047,3.400163650512695,16.8538703918457,-40.48829650878906,347.8927307128906,354.9223022460938,15.84392642974854,1047658.365688875,0.06317138671875,-0.15118408203125,-1.023178100585938,1047658.344519875,-0.02057664841413498,0.1361937969923019,-0.04429449513554573,1047658.315617875,14.73878479003906,51.49661254882812,-110.7951354980469,1047658.314633875,-0.3135007684555577,0.04007796295782868,0.1473280188727593,-0.009837399236857891,0.16148342192173,-0.04780421778559685,0.01320799067616463,-0.006112650036811829,0.0005033016204833984,2,0.07580007407293948,0.008251368673983222,-0.1541980117698329,0.9850934554947306,0.03963318094611168,-0.1467956304550171,-0.9883725047111511,3.290664672851562,16.906494140625,-40.35246276855469,-1,2,1047654.398757167,1,2,1617673451.987926,0,0,0,0,0,0,0,0,0,1047655.747138,0,-0.1902466,98.15765,1617673453.012811,587422867,1685438189,0,0,1,1617673452.00491,1,0.12,1617673455.956275,-21.47231,-30.72936,0
