loggingTime,loggingSample,locationTimestamp_since1970,locationLatitude,locationLongitude,locationAltitude,locationSpeed,locationCourse,locationVerticalAccuracy,locationHorizontalAccuracy,locationFloor,locationHeadingTimestamp_since1970,locationHeadingX,locationHeadingY,locationHeadingZ,locationTrueHeading,locationMagneticHeading,locationHeadingAccuracy,accelerometerTimestamp_sinceReboot,accelerometerAccelerationX,accelerometerAccelerationY,accelerometerAccelerationZ,gyroTimestamp_sinceReboot,gyroRotationX,gyroRotationY,gyroRotationZ,magnetometerTimestamp_sinceReboot,magnetometerX,magnetometerY,magnetometerZ,motionTimestamp_sinceReboot,motionYaw,motionRoll,motionPitch,motionRotationRateX,motionRotationRateY,motionRotationRateZ,motionUserAccelerationX,motionUserAccelerationY,motionUserAccelerationZ,motionAttitudeReferenceFrame,motionQuaternionX,motionQuaternionY,motionQuaternionZ,motionQuaternionW,motionGravityX,motionGravityY,motionGravityZ,motionMagneticFieldX,motionMagneticFieldY,motionMagneticFieldZ,motionHeading,motionMagneticFieldCalibrationAccuracy,activityTimestamp_sinceReboot,activity,activityActivityConfidence,activityActivityStartDate,pedometerStartDate,pedometerNumberofSteps,pedometerAverageActivePace,pedometerCurrentPace,pedometerCurrentCadence,pedometerDistance,pedometerFloorAscended,pedometerFloorDescended,pedometerEndDate,altimeterTimestamp_sinceReboot,altimeterReset,altimeterRelativeAltitude,altimeterPressure,IP_Timestamp_since1970,IP_en0,IP_pdp_ip0,deviceID,deviceOrientationTimeStamp_since1970,deviceOrientation,batteryTimeStamp_since1970,batteryState,batteryLevel,avAudioRecorder_Timestamp_since1970,avAudioRecorderPeakPower,avAudioRecorderAveragePower,label
1617672707.320757,1,0,0,0,0,0,0,0,0,0,1617672707.315822,-15.18033218383789,-0.5357475280761719,-29.41264343261719,41.59102630615234,48.62059783935547,15.85454082489014,1046909.75559825,0.0199737548828125,-0.0590362548828125,-0.9946441650390625,1046909.75808825,0.0971827432513237,0.06710020452737808,0.05394845455884933,1046909.74579025,-3.666854858398438,33.98977661132812,-100.4168548583984,1046909.69582725,-1.59113927611849,0.02037999317041637,0.06198100830967088,0.08687944710254669,0.06312599033117294,-0.1018128395080566,-0.01184020005166531,-0.01073627173900604,-0.01051980257034302,2,-0.02895968544663191,0.01500245297467027,0.71366139014449,-0.6997311533816428,0.02033945173025131,-0.06194132938981056,-0.997872531414032,-15.14894676208496,-0.5266227722167969,-29.28156280517578,-1,2,1046909.397763917,2,0,1617672706.931171,1617670944.349944,97,1.77341,0,0,65.01641,0,0,1617672684.62291,1046906.655538,0,-1.878693,98.16064,0,0,0,0,0,1,1617672707.292254,1,0.14,1617672707.320699,-23.15483,-30.40843,0
1617672707.321225,2,0,0,0,0,0,0,0,0,0,1617672707.315822,-15.18033218383789,-0.5357475280761719,-29.41264343261719,41.59102630615234,48.62059783935547,15.85454082489014,1046909.78921825,0.0154571533203125,-0.0556640625,-0.926116943359375,1046909.75808825,0.0971827432513237,0.06710020452737808,0.05394845455884933,1046909.74579025,-3.666854858398438,33.98977661132812,-100.4168548583984,1046909.75559825,-1.590520778088507,0.02116828556119528,0.05802242383868495,0.0553797073662281,0.02739283442497253,0.06370855867862701,-0.003888547420501709,0.01634864881634712,0.04589933156967163,2,-0.02786097306416877,0.01330458277965101,0.7134905441364152,-0.6999842542570758,0.02113108523190022,-0.05798987299203873,-0.9980934858322144,-15.11584663391113,-0.6217384338378906,-29.28315734863281,-1,2,1046909.397763917,2,0,1617672706.931171,1617670944.349944,97,1.77341,0,0,65.01641,0,0,1617672684.62291,1046906.655538,0,-1.878693,98.16064,0,0,0,0,0,1,1617672707.292254,1,0.14,1617672707.320699,-23.15483,-30.40843,0
1617672707.351155,3,0,0,0,0,0,0,0,0,0,1617672707.335843,-14.95043849945068,-0.6563682556152344,-29.46799468994141,41.67129135131836,48.70086288452148,15.85451221466064,1046909.82283925,0.031707763671875,-0.0609893798828125,-0.9428253173828125,1046909.79170825,0.3671580255031586,0.491525799036026,-0.04242468997836113,1046909.80577025,-3.4764404296875,34.00848388671875,-100.6305847167969,1046909.75559825,-1.590520778088507,0.02116828556119528,0.05802242383868495,0.0553797073662281,0.02739283442497253,0.06370855867862701,-0.003888547420501709,0.01634864881634712,0.04589933156967163,2,-0.02786097306416877,0.01330458277965101,0.7134905441364152,-0.6999842542570758,0.02113108523190022,-0.05798987299203873,-0.9980934858322144,-15.11584663391113,-0.6217384338378906,-29.28315734863281,-1,2,1046909.397763917,2,0,1617672706.931171,1617670944.349944,97,1.77341,0,0,65.01641,0,0,1617672684.62291,1046906.655538,0,-1.878693,98.16064,0,0,0,0,0,1,1617672707.292254,1,0.14,1617672707.328798,-23.15483,-30.40843,0
1617672707.385683,4,0,0,0,0,0,0,0,0,0,1617672707.375863,-14.22717475891113,-1.158100128173828,-29.83293151855469,41.95031356811523,48.97988510131836,15.85458660125732,1046909.85646125,0.088836669921875,-0.1028900146484375,-1.0733642578125,1046909.82533025,0.5388850569725037,0.8223242163658142,-0.08647869527339935,1046909.80577025,-3.4764404296875,34.00848388671875,-100.6305847167969,1046909.81536925,-1.592444546699227,0.04554925306097149,0.07681297723188092,0.4685502946376801,0.7317390441894531,-0.07088443636894226,-0.01254695653915405,0.01536662131547928,0.0494840145111084,2,-0.04311242857504122,0.01152026445830644,0.7133951703155185,-0.699339653381067,0.04539924114942551,-0.07673746347427368,-0.9960172176361084,-14.81742668151855,-0.7411003112792969,-29.436767578125,-1,2,1046909.397763917,2,0,1617672706.931171,1617670944.349944,97,1.77341,0,0,65.01641,0,0,1617672684.62291,1046906.655538,0,-1.878693,98.16064,0,0,0,0,0,1,1617672707.292254,1,0.14,1617672707.362142,-22.35145,-30.97143,0
1617672707.422709,5,0,0,0,0,0,0,0,0,0,1617672707.415488,-13.33119964599609,-2.112087249755859,-30.33086395263672,42.17550277709961,49.20507431030273,15.85466003417969,1046909.89008125,0.108612060546875,-0.1280517578125,-1.047195434570312,1046909.85895125,0.5596787333488464,0.4190824925899506,-0.08785714954137802,1046909.86574325,-2.215011596679688,33.03118896484375,-101.3484344482422,1046909.87513925,-1.599804462028039,0.08069165751771981,0.1081773291327187,0.3120749592781067,0.1490375101566315,-0.06228416413068771,0.02815878391265869,-0.01747603714466095,-0.06460696458816528,2,-0.06652811664756858,0.01068336459224132,0.7141367321427698,-0.6967557717220725,0.08013295382261276,-0.1079664677381516,-0.9909197688102722,-13.51861953735352,-1.850425720214844,-30.26411437988281,-1,2,1046909.397763917,2,0,1617672706.931171,1617670944.349944,97,1.77341,0,0,65.01641,0,0,1617672684.62291,1046906.655538,0,-1.878693,98.16064,0,0,0,0,0,1,1617672707.292254,1,0.14,1617672707.395472,-22.35145,-30.15117,0
1617672707.445107,6,0,0,0,0,0,0,0,0,0,1617672707.435906,-13.18418598175049,-2.385578155517578,-30.38703918457031,42.20771408081055,49.23728561401367,15.85469818115234,1046909.92370225,0.0948333740234375,-0.1180267333984375,-0.999847412109375,1046909.89257125,0.007966846227645874,-0.063715860247612,-0.04374907910823822,1046909.86574325,-2.215011596679688,33.03118896484375,-101.3484344482422,1046909.87513925,-1.599804462028039,0.08069165751771981,0.1081773291327187,0.3120749592781067,0.1490375101566315,-0.06228416413068771,0.02815878391265869,-0.01747603714466095,-0.06460696458816528,2,-0.06652811664756858,0.01068336459224132,0.7141367321427698,-0.6967557717220725,0.08013295382261276,-0.1079664677381516,-0.9909197688102722,-13.51861953735352,-1.850425720214844,-30.26411437988281,-1,2,1046909.397763917,2,0,1617672706.931171,1617670944.349944,97,1.77341,0,0,65.01641,0,0,1617672684.62291,1046906.655538,0,-1.878693,98.16064,0,0,0,0,0,1,1617672707.292254,1,0.14,1617672707.42841,-22.35145,-29.48483,0
1617672707.484771,7,0,0,0,0,0,0,0,0,0,1617672707.475457,-13.34425830841064,-2.198272705078125,-30.28715515136719,42.24470520019531,49.27427673339844,15.85477352142334,1046909.95732425,0.0773468017578125,-0.076690673828125,-1.0218505859375,1046909.92619425,-0.223555326461792,-0.146746039390564,-0.02521108090877533,1046909.92571625,-1.754180908203125,32.23796081542969,-101.3292236328125,1046909.93491025,-1.601564339235341,0.07505022313414192,0.1028277017510894,-0.1827982366085052,-0.1347835510969162,-0.02728606574237347,0.008012197911739349,0.0109107568860054,-0.01854968070983887,2,-0.06264796053314829,0.01078552034375317,0.7151052825506312,-0.6961202160548816,0.0745837390422821,-0.1026465892791748,-0.9919177889823914,-13.27554225921631,-2.320468902587891,-30.24772644042969,-1,2,1046909.397763917,2,0,1617672706.931171,1617670944.349944,97,1.77341,0,0,65.01641,0,0,1617672684.62291,1046906.655538,0,-1.878693,98.16064,0,0,0,0,0,1,1617672707.292254,1,0.14,1617672707.481391,-22.35145,-29.32553,0
1617672707.515207,8,0,0,0,0,0,0,0,0,0,1617672707.496148,-13.47873878479004,-1.968624114990234,-30.20149230957031,42.35375213623047,49.38332366943359,15.85480880737305,1046909.99094425,0.073455810546875,-0.08612060546875,-1.021255493164062,1046909.95981425,0.08789417147636414,-0.0974474623799324,-0.08985372632741928,1046909.98569225,-2.056594848632812,32.53752136230469,-101.2047424316406,1046909.93491025,-1.601564339235341,0.07505022313414192,0.1028277017510894,-0.1827982366085052,-0.1347835510969162,-0.02728606574237347,0.008012197911739349,0.0109107568860054,-0.01854968070983887,2,-0.06264796053314829,0.01078552034375317,0.7151052825506312,-0.6961202160548816,0.0745837390422821,-0.1026465892791748,-0.9919177889823914,-13.27554225921631,-2.320468902587891,-30.24772644042969,-1,2,1046909.397763917,2,0,1617672706.931171,1617670944.349944,97,1.77341,0,0,65.01641,0,0,1617672684.62291,1046906.655538,0,-1.878693,98.16064,0,0,0,0,0,1,1617672707.292254,1,0.14,1617672707.495724,-22.35145,-29.32553,0
1617672707.554971,9,0,0,0,0,0,0,0,0,0,1617672707.535258,-13.52329635620117,-2.228313446044922,-30.23124694824219,42.76421356201172,49.79378509521484,15.85488414764404,1046910.02456725,0.0690460205078125,-0.1363677978515625,-0.99676513671875,1046910.02705725,0.3357154130935669,-0.001470064860768616,-0.1129622384905815,1046909.98569225,-2.056594848632812,32.53752136230469,-101.2047424316406,1046909.99468125,-1.608310926692355,0.07041911112879394,0.1092630375164349,0.3580169975757599,-0.03204645588994026,-0.1643894612789154,0.004094399511814117,0.004431523382663727,-0.01881808042526245,2,-0.06317307626395506,0.01492004761550909,0.7173912709397597,-0.6936399497865544,0.06994134187698364,-0.1090457662940025,-0.9915730953216553,-13.52244472503662,-2.171768188476562,-30.13255310058594,-1,2,1046909.397763917,2,0,1617672706.931171,1617670944.349944,97,1.77341,0,0,65.01641,0,0,1617672684.62291,1046906.655538,0,-1.878693,98.16064,0,0,0,0,0,1,1617672707.292254,1,0.14,1617672707.540025,-21.10078,-29.70291,0
1617672707.59206,10,0,0,0,0,0,0,0,0,0,1617672707.575096,-13.39755153656006,-2.926246643066406,-30.07225799560547,43.06914901733398,50.09872055053711,15.85495948791504,1046910.05818725,0.0720062255859375,-0.1509246826171875,-0.9827880859375,1046910.02705725,0.3357154130935669,-0.001470064860768616,-0.1129622384905815,1046910.04566725,-1.959243774414062,31.72459411621094,-101.2382659912109,1046909.99468125,-1.608310926692355,0.07041911112879394,0.1092630375164349,0.3580169975757599,-0.03204645588994026,-0.1643894612789154,0.004094399511814117,0.004431523382663727,-0.01881808042526245,2,-0.06317307626395506,0.01492004761550909,0.7173912709397597,-0.6936399497865544,0.06994134187698364,-0.1090457662940025,-0.9915730953216553,-13.52244472503662,-2.171768188476562,-30.13255310058594,-1,2,1046910.04204525,1,2,1617672707.575452,1617670944.349944,97,1.77341,0,0,65.01641,0,0,1617672684.62291,1046907.603391,0,-1.931519,98.16125,0,0,0,0,0,1,1617672707.292254,1,0.14,1617672707.56236,-21.10078,-29.80305,0
1617672707.614495,11,0,0,0,0,0,0,0,0,0,1617672707.594726,-13.41541767120361,-3.169246673583984,-30.07913970947266,43.17018127441406,50.19975280761719,15.85499668121338,1046910.09180725,0.06683349609375,-0.1515655517578125,-0.965606689453125,1046910.06067725,0.06660778820514679,-0.1557927876710892,-0.08475883305072784,1046910.04566725,-1.959243774414062,31.72459411621094,-101.2382659912109,1046910.05445225,-1.616896120625551,0.06941736948417457,0.1266513588523973,0.1121192872524261,-0.1284659951925278,-0.0875931978225708,0.003154486417770386,-0.02497784793376923,0.01203173398971558,2,-0.06872507742527673,0.02182226845813754,0.7198152851213805,-0.690410515487313,0.06880607455968857,-0.1263130307197571,-0.9896013140678406,-13.36677932739258,-3.097665786743164,-30.02211761474609,-1,2,1046910.04204525,1,2,1617672707.575452,1617670944.349944,97,1.77341,0,0,65.01641,0,0,1617672684.62291,1046907.603391,0,-1.931519,98.16125,0,0,0,0,0,1,1617672707.292254,1,0.14,1617672707.604603,-21.10078,-29.47536,0
1617672707.661089,12,0,0,0,0,0,0,0,0,0,1617672707.654658,-13.79940223693848,-3.025741577148438,-30.07733154296875,43.2236213684082,50.25319290161133,15.8551082611084,1046910.12543025,0.0648040771484375,-0.116241455078125,-0.9588623046875,1046910.12792025,-0.1714223474264145,-0.236611470580101,-0.0247839093208313,1046910.10565225,-2.17022705078125,31.61769104003906,-101.3017578125,1046910.11422325,-1.618962675282293,0.05723279188792937,0.1204821693681077,-0.1923815906047821,-0.2659428417682648,-0.01636926084756851,0.009360074996948242,0.002270981669425964,0.03008103370666504,2,-0.06219247303333319,0.02386287057402222,0.7211320572282413,-0.6895877361588792,0.05678688734769821,-0.1201908960938454,-0.9911253452301025,-13.71067523956299,-3.08354377746582,-30.12043762207031,-1,2,1046910.04204525,1,2,1617672707.575452,1617670944.349944,97,1.77341,0,0,65.01641,0,0,1617672684.62291,1046907.603391,0,-1.931519,98.16125,0,0,0,0,0,1,1617672707.292254,1,0.14,1617672707.628827,-21.10078,-29.55556,0
1617672707.684653,13,0,0,0,0,0,0,0,0,0,1617672707.675019,-14.00701332092285,-2.845426559448242,-30.03546905517578,43.24139785766602,50.27096939086914,15.85514545440674,1046910.15905025,0.0466461181640625,-0.1131439208984375,-0.95184326171875,1046910.12792025,-0.1714223474264145,-0.236611470580101,-0.0247839093208313,1046910.10565225,-2.17022705078125,31.61769104003906,-101.3017578125,1046910.11422325,-1.618962675282293,0.05723279188792937,0.1204821693681077,-0.1923815906047821,-0.2659428417682648,-0.01636926084756851,0.009360074996948242,0.002270981669425964,0.03008103370666504,2,-0.06219247303333319,0.02386287057402222,0.7211320572282413,-0.6895877361588792,0.05678688734769821,-0.1201908960938454,-0.9911253452301025,-13.71067523956299,-3.08354377746582,-30.12043762207031,-1,2,1046910.04204525,1,2,1617672707.575452,1617670944.349944,97,1.77341,0,0,65.01641,0,0,1617672684.62291,1046907.603391,0,-1.931519,98.16125,0,0,0,0,0,1,1617672707.292254,1,0.14,1617672707.661613,-21.10078,-25.20421,0
1617672707.719365,14,0,0,0,0,0,0,0,0,0,1617672707.71437,-14.14414405822754,-2.821500778198242,-29.96051788330078,43.2020149230957,50.23158645629883,15.85516262054443,1046910.19267025,0.050323486328125,-0.108154296875,-1.006195068359375,1046910.16154025,-0.09673026949167252,-0.05414632707834244,-0.003803526749834418,1046910.16562625,-2.752273559570312,31.89338684082031,-101.0254058837891,1046910.17399425,-1.619270654918086,0.0483489072210792,0.1119792253726085,-0.06492927670478821,-0.008608517237007618,0.0299982950091362,0.001029741019010544,-0.004038333892822266,-0.0003900527954101562,2,-0.05606212118218012,0.02385858221720958,0.7217568635223961,-0.6894597911530225,0.04802737385034561,-0.1117453500628471,-0.9925755858421326,-14.16365337371826,-2.831390380859375,-29.93928527832031,-1,2,1046910.04204525,1,2,1617672707.575452,1617670944.349944,97,1.77341,0,0,65.01641,0,0,1617672684.62291,1046907.603391,0,-1.931519,98.16125,0,0,0,0,0,1,1617672707.292254,1,0.14,1617672707.695492,-21.10078,-25.84814,0
1617672707.754016,15,0,0,0,0,0,0,0,0,0,1617672707.734366,-14.18002700805664,-2.700851440429688,-29.93077850341797,43.16622161865234,50.19579315185547,15.85513877868652,1046910.22629325,0.04669189453125,-0.096435546875,-0.9914398193359375,1046910.19516225,0.02677115984261036,-0.009588977321982384,0.03460085391998291,1046910.22560325,-2.765457153320312,31.92974853515625,-100.9828796386719,1046910.17399425,-1.619270654918086,0.0483489072210792,0.1119792253726085,-0.06492927670478821,-0.008608517237007618,0.0299982950091362,0.001029741019010544,-0.004038333892822266,-0.0003900527954101562,2,-0.05606212118218012,0.02385858221720958,0.7217568635223961,-0.6894597911530225,0.04802737385034561,-0.1117453500628471,-0.9925755858421326,-14.16365337371826,-2.831390380859375,-29.93928527832031,-1,2,1046910.04204525,1,2,1617672707.575452,1617670944.349944,97,1.77341,0,0,65.01641,0,0,1617672684.62291,1046907.603391,0,-1.931519,98.16125,0,0,0,0,0,1,1617672707.292254,1,0.14,1617672707.7287,-21.10078,-25.30338,0
1617672707.783808,16,0,0,0,0,0,0,0,0,0,1617672707.774344,-14.22096824645996,-2.798948287963867,-30.04020690917969,43.17362213134766,50.20319366455078,15.85508251190186,1046910.25991325,0.048431396484375,-0.11456298828125,-0.988189697265625,1046910.22878325,0.0422944612801075,-0.01852601394057274,-0.01006355322897434,1046910.22560325,-2.765457153320312,31.92974853515625,-100.9828796386719,1046910.23376425,-1.618070671289498,0.04770775280058968,0.1132613974162297,0.02740595862269402,-0.01614679396152496,-0.008923353627324104,-0.002431601285934448,0.006635129451751709,0.01037609577178955,2,-0.05628619990781369,0.02450972712221888,0.7213243682134185,-0.6898713216082752,0.04738409817218781,-0.1130193993449211,-0.9924622774124146,-14.2314567565918,-2.762966156005859,-29.97311401367188,-1,2,1046910.04204525,1,2,1617672707.575452,1617670944.349944,97,1.77341,0,0,65.01641,0,0,1617672684.62291,1046907.603391,0,-1.931519,98.16125,0,0,0,0,0,1,1617672707.292254,1,0.14,1617672707.782209,-21.10078,-23.78602,0
1617672707.830061,17,0,0,0,0,0,0,0,0,0,1617672707.813887,-14.14937019348145,-2.876558303833008,-29.68245697021484,43.14742660522461,50.17699813842773,15.85500907897949,1046910.29353525,0.0506439208984375,-0.108062744140625,-1.035781860351562,1046910.26240325,0.003348392434418201,0.05156652256846428,-0.002159024588763714,1046910.28558725,-2.704208374023438,31.790283203125,-100.7935333251953,1046910.23376425,-1.618070671289498,0.04770775280058968,0.1132613974162297,0.02740595862269402,-0.01614679396152496,-0.008923353627324104,-0.002431601285934448,0.006635129451751709,0.01037609577178955,2,-0.05628619990781369,0.02450972712221888,0.7213243682134185,-0.6898713216082752,0.04738409817218781,-0.1130193993449211,-0.9924622774124146,-14.2314567565918,-2.762966156005859,-29.97311401367188,-1,2,1046910.04204525,1,2,1617672707.575452,1617670944.349944,97,1.77341,0,0,65.01641,0,0,1617672684.62291,1046907.603391,0,-1.931519,98.16125,0,0,0,0,0,1,1617672707.292254,1,0.14,1617672707.795658,-21.10078,-23.78602,0
1617672707.853668,18,0,0,0,0,0,0,0,0,0,1617672707.834152,-14.14513492584229,-2.828529357910156,-29.93410491943359,43.1322135925293,50.16178512573242,15.85496997833252,1046910.32715625,0.046051025390625,-0.1053619384765625,-1.014541625976562,1046910.29602525,0.008468852378427982,-0.01490597892552614,0.01202523708343506,1046910.28558725,-2.704208374023438,31.790283203125,-100.7935333251953,1046910.29353525,-1.617647186398249,0.04921728755761791,0.1127937410918392,-0.00288886297494173,-0.01353276614099741,0.01875152252614498,0.004215896129608154,0.01000041514635086,-0.04144746065139771,2,-0.05667481606473339,0.02380793076882165,0.7211490986898917,-0.6900471374251609,0.0488847978413105,-0.1125547215342522,-0.9924423098564148,-14.15655040740967,-2.889110565185547,-29.82430267333984,-1,2,1046910.04204525,1,2,1617672707.575452,1617670944.349944,97,1.77341,0,0,65.01641,0,0,1617672684.62291,1046907.603391,0,-1.931519,98.16125,0,0,0,0,0,1,1617672707.292254,1,0.14,1617672707.841036,-21.10078,-24.52411,0
1617672707.89,19,0,0,0,0,0,0,0,0,0,1617672707.873802,-14.14285564422607,-2.774141311645508,-29.93025970458984,43.17467880249023,50.20425033569336,15.85490417480469,1046910.36077625,0.0424346923828125,-0.106719970703125,-0.9927215576171875,1046910.32964625,0.02441373094916344,-0.03742486983537674,-0.01933321729302406,1046910.34556725,-2.679672241210938,31.8941650390625,-101.1298828125,1046910.29353525,-1.617647186398249,0.04921728755761791,0.1127937410918392,-0.00288886297494173,-0.01353276614099741,0.01875152252614498,0.004215896129608154,0.01000041514635086,-0.04144746065139771,2,-0.05667481606473339,0.02380793076882165,0.7211490986898917,-0.6900471374251609,0.0488847978413105,-0.1125547215342522,-0.9924423098564148,-14.15655040740967,-2.889110565185547,-29.82430267333984,-1,2,1046910.04204525,1,2,1617672707.575452,1617670944.349944,97,1.77341,0,0,65.01641,0,0,1617672684.62291,1046907.603391,0,-1.931519,98.16125,0,0,0,0,0,1,1617672707.292254,1,0.14,1617672707.862184,-11.15617,-14.50634,0
1617672707.923625,20,0,0,0,0,0,0,0,0,0,1617672707.91395,-14.28006267547607,-2.929344177246094,-29.88059234619141,43.26164627075195,50.29121780395508,15.8548412322998,1046910.39439825,0.052490234375,-0.1145782470703125,-1.01806640625,1046910.36326825,0.1220614612102509,0.01062361616641283,-0.03776335716247559,1046910.34556725,-2.679672241210938,31.8941650390625,-101.1298828125,1046910.35330625,-1.618449342762655,0.04690283512690726,0.1138837620189147,0.08264024555683136,-0.03751778602600098,-0.03976993262767792,-0.004284456372261047,0.006643131375312805,0.001249194145202637,2,-0.05620523011032529,0.02502305818641854,0.7214597558085866,-0.6897177815954458,0.0465819276869297,-0.1136377528309822,-0.9924296140670776,-14.09170055389404,-2.797740936279297,-29.99246215820312,-1,2,1046910.04204525,1,2,1617672707.575452,1617670944.349944,97,1.77341,0,0,65.01641,0,0,1617672684.62291,1046907.603391,0,-1.931519,98.16125,0,0,0,0,0,1,1617672707.292254,1,0.14,1617672707.902792,-11.15617,-16.38088,0
1617672707.962135,21,0,0,0,0,0,0,0,0,0,1617672707.953409,-14.28028774261475,-3.28046989440918,-29.86274719238281,43.35990142822266,50.38947296142578,15.85478687286377,1046910.42801925,0.049774169921875,-0.1237640380859375,-0.9556427001953125,1046910.43050925,0.1030664667487144,0.05715037137269974,-0.04047631844878197,1046910.40554525,-2.855575561523438,31.64939880371094,-100.9635162353516,1046910.41307725,-1.620840832239303,0.04732905238417317,0.1192973959804264,0.09692271798849106,0.002996540628373623,-0.03746897727251053,6.798654794692993e-06,-0.003788091242313385,0.03220123052597046,2,-0.05818831772508984,0.02690343054109142,0.7221136751207438,-0.6887976778769624,0.04697511717677116,-0.1190146282315254,-0.9917806386947632,-14.30506324768066,-3.17863655090332,-29.84176635742188,-1,2,1046910.04204525,1,2,1617672707.575452,1617670944.349944,97,1.77341,0,0,65.01641,0,0,1617672684.62291,1046907.603391,0,-1.931519,98.16125,0,0,0,0,0,1,1617672707.292254,1,0.14,1617672707.962107,-11.15617,-19.12134,0
1617672707.98343,22,0,0,0,0,0,0,0,0,0,1617672707.973713,-14.19466590881348,-3.382701873779297,-30.01303863525391,43.41336441040039,50.44293594360352,15.85475254058838,1046910.46163925,0.05419921875,-0.130035400390625,-0.9363555908203125,1046910.43050925,0.1030664667487144,0.05715037137269974,-0.04047631844878197,1046910.40554525,-2.855575561523438,31.64939880371094,-100.9635162353516,1046910.41307725,-1.620840832239303,0.04732905238417317,0.1192973959804264,0.09692271798849106,0.002996540628373623,-0.03746897727251053,6.798654794692993e-06,-0.003788091242313385,0.03220123052597046,2,-0.05818831772508984,0.02690343054109142,0.7221136751207438,-0.6887976778769624,0.04697511717677116,-0.1190146282315254,-0.9917806386947632,-14.30506324768066,-3.17863655090332,-29.84176635742188,-1,2,1046910.04204525,1,2,1617672707.575452,1617670944.349944,97,1.77341,0,0,65.01641,0,0,1617672684.62291,1046907.603391,0,-1.931519,98.16125,0,0,0,0,0,1,1617672707.292254,1,0.14,1617672707.962107,-11.15617,-19.12134,0
1617672708.022807,23,0,0,0,0,0,0,0,0,0,1617672708.013383,-14.07945823669434,-3.390111923217773,-30.07856750488281,43.45466232299805,50.48423385620117,15.85468769073486,1046910.49526125,0.077117919921875,-0.1440277099609375,-1.01849365234375,1046910.46413125,0.08778471499681473,0.1775518804788589,-0.03001835197210312,1046910.46552225,-2.707443237304688,31.31686401367188,-101.2297973632812,1046910.47284825,-1.623274796735887,0.05290578505139559,0.1236621442025526,0.05865754187107086,0.1617191433906555,-0.00784650631248951,0.01498192548751831,-0.0196123793721199,0.004997909069061279,2,-0.06166747817391629,0.02663802937774538,0.7226506968063316,-0.6879414104045855,0.05247728526592255,-0.123347207903862,-0.9909750819206238,-14.15791130065918,-3.3138427734375,-30.10001373291016,-1,2,1046910.04204525,1,2,1617672707.575452,1617670944.349944,97,1.77341,0,0,65.01641,0,0,1617672684.62291,1046907.603391,0,-1.931519,98.16125,0,0,0,0,0,1,1617672707.292254,1,0.14,1617672707.995407,-11.15617,-20.03168,0
1617672708.052876,24,0,0,0,0,0,0,0,0,0,1617672708.033294,-14.05471992492676,-3.541170120239258,-30.05158996582031,43.40290451049805,50.43247604370117,15.85465526580811,1046910.52888225,0.066802978515625,-0.1174774169921875,-1.00823974609375,1046910.49775125,-0.01243350002914667,0.02112605795264244,0.0437229797244072,1046910.52549725,-2.441452026367188,31.1932373046875,-101.3281860351562,1046910.47284825,-1.623274796735887,0.05290578505139559,0.1236621442025526,0.05865754187107086,0.1617191433906555,-0.00784650631248951,0.01498192548751831,-0.0196123793721199,0.004997909069061279,2,-0.06166747817391629,0.02663802937774538,0.7226506968063316,-0.6879414104045855,0.05247728526592255,-0.123347207903862,-0.9909750819206238,-14.15791130065918,-3.3138427734375,-30.10001373291016,-1,2,1046910.04204525,1,2,1617672707.575452,1617670944.349944,97,1.77341,0,0,65.01641,0,0,1617672684.62291,1046907.603391,0,-1.931519,98.16125,0,0,0,0,0,1,1617672707.292254,1,0.14,1617672708.028733,-11.15617,-20.99732,0
1617672708.092851,25,0,0,0,0,0,0,0,0,0,1617672708.073212,-13.93059539794922,-3.439186096191406,-30.21270751953125,43.31360626220703,50.34317779541016,15.85459041595459,1046910.562504667,0.0563812255859375,-0.118255615234375,-0.987945556640625,1046910.53137225,-0.1322041153907776,-0.02180463075637817,0.02366404980421066,1046910.52549725,-2.441452026367188,31.1932373046875,-101.3281860351562,1046910.53261825,-1.621040707413562,0.05408817659268949,0.1211152016869912,-0.1430504620075226,-0.0252516083419323,0.02391794882714748,0.006942238658666611,0.01261924207210541,-0.0002627968788146973,2,-0.06124986802530667,0.02523972781017845,0.7219252879582089,-0.6887926592258555,0.05366577953100204,-0.1208193153142929,-0.9912227988243103,-13.92662715911865,-3.45849609375,-30.18831634521484,-1,2,1046910.04204525,1,2,1617672707.575452,1617670944.349944,97,1.77341,0,0,65.01641,0,0,1617672684.62291,1046907.603391,0,-1.931519,98.16125,0,0,0,0,0,1,1617672707.292254,1,0.14,1617672708.084197,-11.15617,-23.2144,0
1617672708.130898,26,0,0,0,0,0,0,0,0,0,1617672708.112751,-13.91585731506348,-3.30396842956543,-29.80326843261719,43.24837875366211,50.27795028686523,15.85452175140381,1046910.596124667,0.0573883056640625,-0.1189422607421875,-1.025543212890625,1046910.564994667,-0.007218231912702322,0.0951123982667923,0.02728088945150375,1046910.585473667,-2.481979370117188,31.41339111328125,-100.9037933349609,1046910.53261825,-1.621040707413562,0.05408817659268949,0.1211152016869912,-0.1430504620075226,-0.0252516083419323,0.02391794882714748,0.006942238658666611,0.01261924207210541,-0.0002627968788146973,2,-0.06124986802530667,0.02523972781017845,0.7219252879582089,-0.6887926592258555,0.05366577953100204,-0.1208193153142929,-0.9912227988243103,-13.92662715911865,-3.45849609375,-30.18831634521484,-1,2,1046910.04204525,1,2,1617672707.575452,1617670944.349944,97,1.77341,0,0,65.01641,0,0,1617672684.62291,1046907.603391,0,-1.931519,98.16125,0,0,0,0,0,1,1617672707.292254,1,0.14,1617672708.095608,-11.15617,-23.2144,0
1617672708.152396,27,0,0,0,0,0,0,0,0,0,1617672708.13288,-13.8809289932251,-3.229595184326172,-29.96082305908203,43.21701812744141,50.24658966064453,15.8544864654541,1046910.629745667,0.0486297607421875,-0.1295928955078125,-1.012847900390625,1046910.598614667,0.05497856438159943,0.002489789389073849,0.02882099524140358,1046910.585473667,-2.481979370117188,31.41339111328125,-100.9037933349609,1046910.592389667,-1.619387396589333,0.05769056034928759,0.1202946107618161,0.0516345277428627,0.01411895826458931,0.03117283247411251,-0.001730307936668396,-0.002279229462146759,-0.02918767929077148,2,-0.06228807354516824,0.02365041485764328,0.7212701735163453,-0.6894419080042721,0.05724188312888145,-0.120004691183567,-0.9911217093467712,-13.91328430175781,-3.299352645874023,-29.80646514892578,-1,2,1046910.04204525,1,2,1617672707.575452,1617670944.349944,97,1.77341,0,0,65.01641,0,0,1617672684.62291,1046907.603391,0,-1.931519,98.16125,0,0,0,0,0,1,1617672707.292254,1,0.14,1617672708.142836,-11.15617,-24.79782,0
1617672708.20339,28,0,0,0,0,0,0,0,0,0,1617672708.192617,-13.95116233825684,-3.225263595581055,-29.96510314941406,43.13448715209961,50.16405868530273,15.85441589355469,1046910.663367667,0.050048828125,-0.1264190673828125,-1.015609741210938,1046910.632236667,-0.1109984219074249,-0.03566878288984299,0.01064971461892128,1046910.645455667,-2.5474853515625,31.43359375,-101.2345581054688,1046910.652160667,-1.617936042523097,0.05599176290458764,0.1164163672824972,-0.1394780278205872,-0.09815696626901627,0.01870251446962357,-0.004665035754442215,-0.01107418537139893,-0.02726137638092041,2,-0.06035969495051222,0.02278894092637031,0.7209426870190461,-0.689984799911957,0.05558371543884277,-0.1161535829305649,-0.9916747212409973,-13.94178104400635,-3.226831436157227,-29.96939849853516,-1,2,1046910.04204525,1,2,1617672707.575452,1617670944.349944,97,1.77341,0,0,65.01641,0,0,1617672684.62291,1046907.603391,0,-1.931519,98.16125,0,0,0,0,0,1,1617672707.292254,1,0.14,1617672708.162339,-11.15617,-25.22569,0
1617672708.222015,29,0,0,0,0,0,0,0,0,0,1617672708.21238,-13.97296905517578,-3.13092041015625,-29.99912261962891,43.11208343505859,50.14165496826172,15.85439109802246,1046910.696987667,0.0443115234375,-0.1049652099609375,-0.9874114990234375,1046910.699477667,0.02033323422074318,-0.01053333468735218,-0.005575061310082674,1046910.645455667,-2.5474853515625,31.43359375,-101.2345581054688,1046910.652160667,-1.617936042523097,0.05599176290458764,0.1164163672824972,-0.1394780278205872,-0.09815696626901627,0.01870251446962357,-0.004665035754442215,-0.01107418537139893,-0.02726137638092041,2,-0.06035969495051222,0.02278894092637031,0.7209426870190461,-0.689984799911957,0.05558371543884277,-0.1161535829305649,-0.9916747212409973,-13.94178104400635,-3.226831436157227,-29.96939849853516,-1,2,1046910.04204525,1,2,1617672707.575452,1617670944.349944,97,1.77341,0,0,65.01641,0,0,1617672684.62291,1046907.603391,0,-1.931519,98.16125,0,0,0,0,0,1,1617672707.292254,1,0.14,1617672708.203879,-11.15617,-26.23624,0
1617672708.251883,30,0,0,0,0,0,0,0,0,0,1617672708.23233,-13.99493026733398,-3.07398796081543,-29.48152160644531,43.1120491027832,50.14162063598633,15.85436344146729,1046910.730608667,0.0489044189453125,-0.105865478515625,-0.9687652587890625,1046910.699477667,0.02033323422074318,-0.01053333468735218,-0.005575061310082674,1046910.705439667,-2.565277099609375,31.62677001953125,-100.5208587646484,1046910.711931667,-1.617271392223026,0.05268880136274504,0.1140969561745483,0.0592648983001709,-0.01780281588435173,-0.02755309455096722,-0.002273064106702805,0.01462166011333466,0.008858203887939453,2,-0.05837905558807203,0.02307033583500388,0.7208814200810247,-0.690209947500402,0.05232200399041176,-0.1138495653867722,-0.992119312286377,-13.95940017700195,-3.104434967041016,-29.29920196533203,-1,2,1046910.04204525,1,2,1617672707.575452,1617670944.349944,97,1.77341,0,0,65.01641,0,0,1617672684.62291,1046907.603391,0,-1.931519,98.16125,0,0,0,0,0,1,1617672707.292254,1,0.14,1617672708.228954,-11.15617,-26.65586,0
1617672708.291751,31,0,0,0,0,0,0,0,0,0,1617672708.272442,-13.98376178741455,-2.993297576904297,-29.59535217285156,43.20154190063477,50.23111343383789,15.85429859161377,1046910.764230667,0.05511474609375,-0.116607666015625,-0.9869232177734375,1046910.733099667,0.08371593803167343,0.06353823095560074,-0.04313015937805176,1046910.765420667,-2.67626953125,31.7529296875,-101.1334075927734,1046910.711931667,-1.617271392223026,0.05268880136274504,0.1140969561745483,0.0592648983001709,-0.01780281588435173,-0.02755309455096722,-0.002273064106702805,0.01462166011333466,0.008858203887939453,2,-0.05837905558807203,0.02307033583500388,0.7208814200810247,-0.690209947500402,0.05232200399041176,-0.1138495653867722,-0.992119312286377,-13.95940017700195,-3.104434967041016,-29.29920196533203,-1,2,1046910.04204525,1,2,1617672707.575452,1617670944.349944,97,1.77341,0,0,65.01641,0,0,1617672684.62291,1046907.603391,0,-1.931519,98.16125,0,0,0,0,0,1,1617672707.292254,1,0.14,1617672708.261978,-11.15617,-27.49971,0
1617672708.327003,32,0,0,0,0,0,0,0,0,0,1617672708.312289,-14.0027322769165,-2.980049133300781,-29.93569183349609,43.27382659912109,50.30339813232422,15.85422515869141,1046910.797850667,0.055328369140625,-0.1243743896484375,-0.99017333984375,1046910.766720667,0.0352884829044342,0.02612321265041828,-0.03630101680755615,1046910.765420667,-2.67626953125,31.7529296875,-101.1334075927734,1046910.771702667,-1.619528146999256,0.05461090868664534,0.117331783905378,0.01805655285716057,0.02359230257570744,-0.03469159826636314,-0.0006195046007633209,-0.001833714544773102,0.01895725727081299,2,-0.06015786602073488,0.02364421890375987,0.7215052576519203,-0.6893853231122682,0.05420847982168198,-0.1170627549290657,-0.9916439652442932,-14.02061080932617,-2.991308212280273,-29.94702911376953,-1,2,1046910.04204525,1,2,1617672707.575452,1617670944.349944,97,1.77341,0,0,65.01641,0,0,1617672684.62291,1046907.603391,0,-1.931519,98.16125,1617672708.293942,587422867,1685438189,0,0,1,1617672707.292254,1,0.14,1617672708.294458,-11.15617,-28.14445,0
1617672708.371303,33,0,0,0,0,0,0,0,0,0,1617672708.352168,-13.9699649810791,-3.000602722167969,-29.60317993164062,43.28821563720703,50.31778717041016,15.85415649414062,1046910.831472667,0.0631561279296875,-0.1085357666015625,-1.015533447265625,1046910.800340667,-0.05031803250312805,0.01537869032472372,-0.01639095693826675,1046910.825394667,-2.53924560546875,31.688232421875,-100.7397613525391,1046910.771702667,-1.619528146999256,0.05461090868664534,0.117331783905378,0.01805655285716057,0.02359230257570744,-0.03469159826636314,-0.0006195046007633209,-0.001833714544773102,0.01895725727081299,2,-0.06015786602073488,0.02364421890375987,0.7215052576519203,-0.6893853231122682,0.05420847982168198,-0.1170627549290657,-0.9916439652442932,-14.02061080932617,-2.991308212280273,-29.94702911376953,-1,2,1046910.04204525,1,2,1617672707.575452,1617670944.349944,97,1.77341,0,0,65.01641,0,0,1617672684.62291,1046907.603391,0,-1.931519,98.16125,1617672708.293942,587422867,1685438189,0,0,1,1617672707.292254,1,0.14,1617672708.371237,-11.15617,-27.71652,0
1617672708.391283,34,0,0,0,0,0,0,0,0,0,1617672708.371915,-13.9436092376709,-2.969614028930664,-29.70680236816406,43.30321502685547,50.33278656005859,15.85412406921387,1046910.865093667,0.0575103759765625,-0.104736328125,-1.015029907226562,1046910.833962667,-0.07678159326314926,-0.05778739973902702,-0.01890045404434204,1046910.825394667,-2.53924560546875,31.688232421875,-100.7397613525391,1046910.831472667,-1.620256520771682,0.05427238691420169,0.1137851874447611,-0.08980923891067505,-0.06299200654029846,-0.01398838963359594,0.006224773824214935,0.01064980775117874,-0.01102691888809204,2,-0.05880906462502494,0.02249893094338038,0.7218737126685554,-0.6891543205019373,0.05389496311545372,-0.1135398149490356,-0.9920705556869507,-13.95789527893066,-2.972051620483398,-29.59592437744141,-1,2,1046910.04204525,1,2,1617672707.575452,1617670944.349944,97,1.77341,0,0,65.01641,0,0,1617672684.62291,1046907.603391,0,-1.931519,98.16125,1617672708.293942,587422867,1685438189,0,0,1,1617672707.292254,1,0.14,1617672708.371237,-11.15617,-27.71652,0
1617672708.430589,35,0,0,0,0,0,0,0,0,0,1617672708.411601,-13.95343017578125,-2.825893402099609,-29.60855865478516,43.38996505737305,50.41953659057617,15.8540563583374,1046910.898713667,0.057586669921875,-0.1224822998046875,-0.985137939453125,1046910.867583667,-0.01614275015890598,-0.04367557540535927,-0.04179298505187035,1046910.885368667,-2.506256103515625,31.87301635742188,-100.7505035400391,1046910.831472667,-1.620256520771682,0.05427238691420169,0.1137851874447611,-0.08980923891067505,-0.06299200654029846,-0.01398838963359594,0.006224773824214935,0.01064980775117874,-0.01102691888809204,2,-0.05880906462502494,0.02249893094338038,0.7218737126685554,-0.6891543205019373,0.05389496311545372,-0.1135398149490356,-0.9920705556869507,-13.95789527893066,-2.972051620483398,-29.59592437744141,-1,2,1046910.04204525,1,2,1617672707.575452,1617670944.349944,97,1.77341,0,0,65.01641,0,0,1617672684.62291,1046907.603391,0,-1.931519,98.16125,1617672708.293942,587422867,1685438189,0,0,1,1617672707.292254,1,0.14,1617672708.395591,-11.15617,-27.87938,0
1617672708.461563,36,0,0,0,0,0,0,0,0,0,1617672708.451499,-14.03769779205322,-2.779172897338867,-29.74570465087891,43.46943283081055,50.49900436401367,15.85398578643799,1046910.932335667,0.0646514892578125,-0.1328277587890625,-1.012237548828125,1046910.901205667,0.04496481269598007,0.02466859482228756,-0.04373416304588318,1046910.885368667,-2.506256103515625,31.87301635742188,-100.7505035400391,1046910.891243667,-1.622264490417803,0.05234721513500378,0.1119080970483935,0.03186476230621338,0.003830648958683014,-0.04886608943343163,0.006079040467739105,-0.01196729391813278,0.007077813148498535,2,-0.05744678529946023,0.02254047447465657,0.7226767548305462,-0.6884259078827967,0.05199601873755455,-0.1116746664047241,-0.992383599281311,-13.98158168792725,-2.788312911987305,-29.68256378173828,-1,2,1046910.04204525,1,2,1617672707.575452,1617670944.349944,97,1.77341,0,0,65.01641,0,0,1617672684.62291,1046907.603391,0,-1.931519,98.16125,1617672708.293942,587422867,1685438189,0,0,1,1617672707.292254,1,0.14,1617672708.445274,-11.15617,-24.49982,0
1617672708.500548,37,0,0,0,0,0,0,0,0,0,1617672708.491344,-13.97799491882324,-2.824502944946289,-29.87704467773438,43.47238159179688,50.501953125,15.85392951965332,1046910.965956667,0.058013916015625,-0.1231231689453125,-0.999481201171875,1046910.968446667,-0.02428616397082806,-0.01414431445300579,0.01088966522365808,1046910.945344667,-2.571456909179688,31.87420654296875,-100.8591003417969,1046910.951014667,-1.623469532983377,0.05253612532070014,0.1127677958189887,-0.003751913551241159,-0.0335821770131588,-0.001432439079508185,0.005957663059234619,-0.01038059592247009,-0.00633394718170166,2,-0.05779630837317459,0.02282179223960513,0.723060723694499,-0.6879839161103475,0.05217842757701874,-0.1125289425253868,-0.9922775030136108,-13.95471096038818,-2.826715469360352,-29.73759460449219,-1,2,1046910.04204525,1,2,1617672707.575452,1617670944.349944,97,1.77341,0,0,65.01641,0,0,1617672684.62291,1046907.603391,0,-1.931519,98.16125,1617672708.293942,587422867,1685438189,0,0,1,1617672707.292254,1,0.14,1617672708.500529,-11.15617,-26.22133,0
1617672708.521349,38,0,0,0,0,0,0,0,0,0,1617672708.511744,-14.0344409942627,-2.835529327392578,-29.95713806152344,43.44872283935547,50.47829437255859,15.85390377044678,1046910.999576667,0.056121826171875,-0.1023712158203125,-1.027786254882812,1046910.968446667,-0.02428616397082806,-0.01414431445300579,0.01088966522365808,1046910.945344667,-2.571456909179688,31.87420654296875,-100.8591003417969,1046910.951014667,-1.623469532983377,0.05253612532070014,0.1127677958189887,-0.003751913551241159,-0.0335821770131588,-0.001432439079508185,0.005957663059234619,-0.01038059592247009,-0.00633394718170166,2,-0.05779630837317459,0.02282179223960513,0.723060723694499,-0.6879839161103475,0.05217842757701874,-0.1125289425253868,-0.9922775030136108,-13.95471096038818,-2.826715469360352,-29.73759460449219,-1,2,1046910.04204525,1,2,1617672707.575452,1617670944.349944,97,1.77341,0,0,65.01641,0,0,1617672684.62291,1046908.551195,0,-1.973816,98.16177,1617672708.293942,587422867,1685438189,0,0,1,1617672707.292254,1,0.14,1617672708.500529,-11.15617,-26.22133,0
1617672708.563489,39,0,0,0,0,0,0,0,0,0,1617672708.551278,-14.12213134765625,-2.852603912353516,-29.90825653076172,43.43977737426758,50.4693489074707,15.85385322570801,1046911.033198667,0.045684814453125,-0.1094970703125,-0.9921112060546875,1046911.002068667,0.04410913959145546,-0.06904751062393188,0.00478277076035738,1046911.005324667,-2.581573486328125,31.83804321289062,-100.9900054931641,1046911.010785667,-1.622800119035069,0.05007989497242246,0.1132750605284831,0.05399478226900101,-0.04826617240905762,0.001433860277757049,-0.002679932862520218,0.008586578071117401,-0.003122568130493164,2,-0.05709020843931246,0.02383148984430508,0.7228861050056183,-0.6881921529773958,0.04973814636468887,-0.1130329743027687,-0.9923455119132996,-14.08074951171875,-2.85008430480957,-29.8875732421875,-1,2,1046910.04204525,1,2,1617672707.575452,1617670944.349944,97,1.77341,0,0,65.01641,0,0,1617672684.62291,1046908.551195,0,-1.973816,98.16177,1617672708.293942,587422867,1685438189,0,0,1,1617672707.292254,1,0.14,1617672708.528711,-11.15617,-26.83984,0
1617672708.59085,40,0,0,0,0,0,0,0,0,0,1617672708.571364,-14.1971607208252,-2.945945739746094,-29.82271575927734,43.4481086730957,50.47768020629883,15.8538236618042,1046911.066819667,0.049102783203125,-0.119232177734375,-0.98150634765625,1046911.069309667,0.09610415995121002,0.0183182880282402,-0.006029929500073195,1046911.065299667,-2.760360717773438,31.76429748535156,-100.8791656494141,1046911.010785667,-1.622800119035069,0.05007989497242246,0.1132750605284831,0.05399478226900101,-0.04826617240905762,0.001433860277757049,-0.002679932862520218,0.008586578071117401,-0.003122568130493164,2,-0.05709020843931246,0.02383148984430508,0.7228861050056183,-0.6881921529773958,0.04973814636468887,-0.1130329743027687,-0.9923455119132996,-14.08074951171875,-2.85008430480957,-29.8875732421875,-1,2,1046910.04204525,1,2,1617672707.575452,1617670944.349944,97,1.77341,0,0,65.01641,0,0,1617672684.62291,1046908.551195,0,-1.973816,98.16177,1617672708.293942,587422867,1685438189,0,0,1,1617672707.292254,1,0.14,1617672708.564091,-11.15617,-27.91059,0
1617672708.630348,41,0,0,0,0,0,0,0,0,0,1617672708.611141,-14.1766529083252,-2.990724563598633,-29.84812927246094,43.46620941162109,50.49578094482422,15.85375499725342,1046911.100441667,0.053741455078125,-0.125762939453125,-0.9802093505859375,1046911.069309667,0.09610415995121002,0.0183182880282402,-0.006029929500073195,1046911.065299667,-2.760360717773438,31.76429748535156,-100.8791656494141,1046911.070556667,-1.623241366018166,0.05025802601157479,0.1182237700541935,0.08465985953807831,0.01642739772796631,-0.00385967455804348,0.0005594640970230103,-0.004732087254524231,0.02033030986785889,2,-0.05884650650387169,0.02557661512011755,0.7228863200043868,-0.6879813041338896,0.04988620430231094,-0.1179485619068146,-0.9917658567428589,-14.15199756622314,-2.993986129760742,-29.79436492919922,-1,2,1046910.04204525,1,2,1617672707.575452,1617670944.349944,97,1.77341,0,0,65.01641,0,0,1617672684.62291,1046908.551195,0,-1.973816,98.16177,1617672708.293942,587422867,1685438189,0,0,1,1617672707.292254,1,0.14,1617672708.628604,-11.15617,-28.39264,0
1617672708.660484,42,0,0,0,0,0,0,0,0,0,1617672708.650668,-14.18629837036133,-3.00169563293457,-29.78395843505859,43.44868469238281,50.47825622558594,15.85368537902832,1046911.134061667,0.053070068359375,-0.11492919921875,-0.9965667724609375,1046911.102931667,-0.01123507786542177,0.03084313310682774,0.008752479217946529,1046911.125273667,-2.770965576171875,31.72064208984375,-100.9864501953125,1046911.070556667,-1.623241366018166,0.05025802601157479,0.1182237700541935,0.08465985953807831,0.01642739772796631,-0.00385967455804348,0.0005594640970230103,-0.004732087254524231,0.02033030986785889,2,-0.05884650650387169,0.02557661512011755,0.7228863200043868,-0.6879813041338896,0.04988620430231094,-0.1179485619068146,-0.9917658567428589,-14.15199756622314,-2.993986129760742,-29.79436492919922,-1,2,1046910.04204525,1,2,1617672707.575452,1617670944.349944,97,1.77341,0,0,65.01641,0,0,1617672684.62291,1046908.551195,0,-1.973816,98.16177,1617672708.293942,587422867,1685438189,0,0,1,1617672707.292254,1,0.14,1617672708.628604,-11.15617,-28.39264,0
1617672708.690397,43,0,0,0,0,0,0,0,0,0,1617672708.670734,-14.21806526184082,-2.936588287353516,-29.82282257080078,43.44505310058594,50.47462463378906,15.85365295410156,1046911.167682667,0.04827880859375,-0.117401123046875,-1.0020751953125,1046911.136551667,-0.04283561557531357,-0.05131432041525841,-0.003249056404456496,1046911.125273667,-2.770965576171875,31.72064208984375,-100.9864501953125,1046911.130326667,-1.622996820473264,0.05038203556556298,0.1176208452207936,-0.05645996332168579,-0.05570225417613983,0.002083782572299242,0.001226358115673065,0.002847887575626373,0.0005890727043151855,2,-0.05868766802347489,0.02530823329347304,0.7228166453452008,-0.6880781213571573,0.05001276358962059,-0.1173498257994652,-0.9918305277824402,-14.17914485931396,-2.956195831298828,-29.77597045898438,-1,2,1046910.04204525,1,2,1617672707.575452,1617670944.349944,97,1.77341,0,0,65.01641,0,0,1617672684.62291,1046908.551195,0,-1.973816,98.16177,1617672708.293942,587422867,1685438189,0,0,1,1617672707.292254,1,0.14,1617672708.670691,-11.15617,-26.2427,0
1617672708.730839,44,0,0,0,0,0,0,0,0,0,1617672708.710427,-14.17488861083984,-3.048377990722656,-29.74678802490234,43.42143630981445,50.45100784301758,15.85358619689941,1046911.201304667,0.045989990234375,-0.1074066162109375,-0.99725341796875,1046911.170174667,0.00735378684476018,-0.03052408620715141,0.01305428333580494,1046911.185245667,-2.75048828125,31.62199401855469,-100.9264984130859,1046911.190097667,-1.622492563827038,0.04831462929127477,0.1170410402665178,0.06189990788698196,-0.0302853100001812,0.01521710585802794,-0.001288678497076035,0.008818082511425018,-0.007145941257476807,2,-0.05774809451325542,0.02579480573405095,0.7227205562161257,-0.6882403195087698,0.04796541854739189,-0.1167740076780319,-0.9919995665550232,-14.2097806930542,-3.045534133911133,-29.82945251464844,-1,2,1046910.04204525,1,2,1617672707.575452,1617670944.349944,97,1.77341,0,0,65.01641,0,0,1617672684.62291,1046908.551195,0,-1.973816,98.16177,1617672708.293942,587422867,1685438189,0,0,1,1617672707.292254,1,0.14,1617672708.695646,-11.15617,-26.76956,0
1617672708.760361,45,0,0,0,0,0,0,0,0,0,1617672708.75036,-14.26183700561523,-2.960397720336914,-29.744140625,43.4116096496582,50.44118118286133,15.85351848602295,1046911.234924667,0.049468994140625,-0.11871337890625,-0.9912872314453125,1046911.203794667,0.0938897430896759,0.002292449120432138,0.005617139395326376,1046911.185245667,-2.75048828125,31.62199401855469,-100.9264984130859,1046911.190097667,-1.622492563827038,0.04831462929127477,0.1170410402665178,0.06189990788698196,-0.0302853100001812,0.01521710585802794,-0.001288678497076035,0.008818082511425018,-0.007145941257476807,2,-0.05774809451325542,0.02579480573405095,0.7227205562161257,-0.6882403195087698,0.04796541854739189,-0.1167740076780319,-0.9919995665550232,-14.2097806930542,-3.045534133911133,-29.82945251464844,-1,2,1046910.04204525,1,2,1617672707.575452,1617670944.349944,97,1.77341,0,0,65.01641,0,0,1617672684.62291,1046908.551195,0,-1.973816,98.16177,1617672708.293942,587422867,1685438189,0,0,1,1617672707.292254,1,0.14,1617672708.744491,-11.15617,-26.89472,0
1617672708.790724,46,0,0,0,0,0,0,0,0,0,1617672708.770168,-14.2022066116333,-2.975839614868164,-29.59241485595703,43.41412734985352,50.44369888305664,15.85348415374756,1046911.268545667,0.0595550537109375,-0.1287384033203125,-0.9956207275390625,1046911.237414667,0.05683478713035583,-0.009089368395507336,-0.00281602656468749,1046911.245229667,-2.746856689453125,31.69818115234375,-100.7320404052734,1046911.249868667,-1.622399199389003,0.04786846483730709,0.1205317033500826,0.01800000295042992,0.0255039781332016,0.00911295972764492,0.003202036023139954,-0.01043619215488434,0.0223236083984375,2,-0.05878570109207285,0.02721032236855376,0.7225974817924196,-0.6882273041926233,0.0475030243396759,-0.1202400699257851,-0.991607666015625,-14.23399543762207,-3.111005783081055,-29.6868896484375,-1,2,1046910.04204525,1,2,1617672707.575452,1617670944.349944,97,1.77341,0,0,65.01641,0,0,1617672684.62291,1046908.551195,0,-1.973816,98.16177,1617672708.293942,587422867,1685438189,0,0,1,1617672707.292254,1,0.14,1617672708.762111,-11.15617,-27.50766,0
1617672708.829747,47,0,0,0,0,0,0,0,0,0,1617672708.810203,-14.15423202514648,-3.367717742919922,-29.73008728027344,43.3621826171875,50.39175415039062,15.85341930389404,1046911.302167667,0.056549072265625,-0.1192779541015625,-0.981201171875,1046911.271037667,0.008329834789037704,-0.01285401359200478,0.02876879833638668,1046911.305207667,-2.705535888671875,31.29010009765625,-100.6155395507812,1046911.249868667,-1.622399199389003,0.04786846483730709,0.1205317033500826,0.01800000295042992,0.0255039781332016,0.00911295972764492,0.003202036023139954,-0.01043619215488434,0.0223236083984375,2,-0.05878570109207285,0.02721032236855376,0.7225974817924196,-0.6882273041926233,0.0475030243396759,-0.1202400699257851,-0.991607666015625,-14.23399543762207,-3.111005783081055,-29.6868896484375,-1,2,1046910.04204525,1,2,1617672707.575452,1617670944.349944,97,1.77341,0,0,65.01641,0,0,1617672684.62291,1046908.551195,0,-1.973816,98.16177,1617672708.293942,587422867,1685438189,0,0,1,1617672707.292254,1,0.14,1617672708.828777,-12.82801,-26.69619,0
1617672708.861277,48,0,0,0,0,0,0,0,0,0,1617672708.85002,-14.18839359283447,-3.295427322387695,-29.70628356933594,43.28736114501953,50.31693267822266,15.85335445404053,1046911.335787667,0.050323486328125,-0.123504638671875,-0.978515625,1046911.304657667,0.004219246096909046,-0.04507080465555191,0.03038586862385273,1046911.305207667,-2.705535888671875,31.29010009765625,-100.6155395507812,1046911.309639667,-1.620719891546922,0.04596858192879056,0.1201657493630496,-0.01600321009755135,-0.04622193053364754,0.03260935842990875,0.007983211427927017,0.001087099313735962,0.01914483308792114,2,-0.0579969537545412,0.02768281559656453,0.7220857589071242,-0.6888122914477413,0.04562102258205414,-0.1198767647147179,-0.9917400479316711,-14.19014358520508,-3.341228485107422,-29.67893981933594,-1,2,1046910.04204525,1,2,1617672707.575452,1617670944.349944,97,1.77341,0,0,65.01641,0,0,1617672684.62291,1046908.551195,0,-1.973816,98.16177,1617672708.293942,587422867,1685438189,0,0,1,1617672707.292254,1,0.14,1617672708.828777,-12.82801,-26.69619,0
1617672708.899486,49,0,0,0,0,0,0,0,0,0,1617672708.889916,-14.25612640380859,-3.096193313598633,-29.71235656738281,43.20418548583984,50.23375701904297,15.85329055786133,1046911.369410667,0.0411224365234375,-0.1282501220703125,-0.971160888671875,1046911.338277667,-0.05143336206674576,-0.03264742344617844,0.03123488463461399,1046911.365188667,-2.829864501953125,31.6015625,-100.8937530517578,1046911.309639667,-1.620719891546922,0.04596858192879056,0.1201657493630496,-0.01600321009755135,-0.04622193053364754,0.03260935842990875,0.007983211427927017,0.001087099313735962,0.01914483308792114,2,-0.0579969537545412,0.02768281559656453,0.7220857589071242,-0.6888122914477413,0.04562102258205414,-0.1198767647147179,-0.9917400479316711,-14.19014358520508,-3.341228485107422,-29.67893981933594,-1,2,1046910.04204525,1,2,1617672707.575452,1617670944.349944,97,1.77341,0,0,65.01641,0,0,1617672684.62291,1046908.551195,0,-1.973816,98.16177,1617672708.293942,587422867,1685438189,0,0,1,1617672707.292254,1,0.14,1617672708.895417,-14.49984,-27.79227,0
1617672708.929189,50,0,0,0,0,0,0,0,0,0,1617672708.909851,-14.42934417724609,-3.019468307495117,-29.86918640136719,43.14875030517578,50.17832183837891,15.85325813293457,1046911.403030667,0.0405731201171875,-0.1264190673828125,-1.00396728515625,1046911.371900667,-0.04492193460464478,0.03685175627470016,0.04500449076294899,1046911.365188667,-2.829864501953125,31.6015625,-100.8937530517578,1046911.369410667,-1.61854886229615,0.04495709807765302,0.117304809123598,-0.05445535108447075,0.02285227179527283,0.04292173311114311,-0.004517633467912674,-0.01389969140291214,0.01841509342193604,2,-0.05667846474916881,0.02693401821253752,0.7214504304197272,-0.689616852137841,0.04463310167193413,-0.1170359700918198,-0.9921241998672485,-14.32707405090332,-3.027900695800781,-29.82096862792969,-1,2,1046910.04204525,1,2,1617672707.575452,1617670944.349944,97,1.77341,0,0,65.01641,0,0,1617672684.62291,1046908.551195,0,-1.973816,98.16177,1617672708.293942,587422867,1685438189,0,0,1,1617672707.292254,1,0.14,1617672708.928728,-15.05712,-28.51025,0
1617672708.9593,51,0,0,0,0,0,0,0,0,0,1617672708.949549,-14.293288230896,-2.859943389892578,-29.75429534912109,43.01942825317383,50.04899978637695,15.85319232940674,1046911.436650667,0.0477294921875,-0.10968017578125,-1.032684326171875,1046911.405520667,-0.01819471642374992,0.05541558936238289,0.05897250771522522,1046911.425165667,-2.83355712890625,31.86984252929688,-100.9110412597656,1046911.369410667,-1.61854886229615,0.04495709807765302,0.117304809123598,-0.05445535108447075,0.02285227179527283,0.04292173311114311,-0.004517633467912674,-0.01389969140291214,0.01841509342193604,2,-0.05667846474916881,0.02693401821253752,0.7214504304197272,-0.689616852137841,0.04463310167193413,-0.1170359700918198,-0.9921241998672485,-14.32707405090332,-3.027900695800781,-29.82096862792969,-1,2,1046910.04204525,1,2,1617672707.575452,1617670944.349944,97,1.77341,0,0,65.01641,0,0,1617672684.62291,1046908.551195,0,-1.973816,98.16177,1617672708.293942,587422867,1685438189,0,0,1,1617672707.292254,1,0.14,1617672708.928728,-15.05712,-28.51025,0
1617672708.999104,52,0,0,0,0,0,0,0,0,0,1617672708.989975,-14.32267379760742,-2.899589538574219,-29.86372375488281,42.97269821166992,50.00226974487305,15.85312557220459,1046911.470273667,0.0440521240234375,-0.136627197265625,-1.005813598632812,1046911.439142667,0.00720491586253047,-0.0507795587182045,0.01184147968888283,1046911.425165667,-2.83355712890625,31.86984252929688,-100.9110412597656,1046911.429180667,-1.615360574793534,0.04692839504043395,0.116066472510681,-0.005815960001200438,-0.03438232094049454,0.02782057225704193,0.001073017716407776,0.006003811955451965,-0.03948366641998291,2,-0.05700481642391148,0.02571559820464117,0.7203300171427101,-0.6908066854506176,0.04659554734826088,-0.1158060505986214,-0.9921783208847046,-14.31245708465576,-2.797151565551758,-29.83509826660156,-1,2,1046910.04204525,1,2,1617672707.575452,1617670944.349944,97,1.77341,0,0,65.01641,0,0,1617672684.62291,1046908.551195,0,-1.973816,98.16177,1617672708.293942,587422867,1685438189,0,0,1,1617672707.292254,1,0.14,1617672708.995634,-16.72896,-28.61477,0
1617672709.030906,53,0,0,0,0,0,0,0,0,0,1617672709.029299,-14.42286968231201,-2.878173828125,-29.87328338623047,42.83290863037109,49.86248016357422,15.85305690765381,1046911.503893667,0.038818359375,-0.1247406005859375,-1.004547119140625,1046911.472763667,-0.0154159739613533,-0.0634697824716568,0.04253946989774704,1046911.485137667,-2.987106323242188,31.80804443359375,-100.8680114746094,1046911.488951667,-1.613432297327715,0.04269821532117109,0.1157055036365171,-0.04036619514226913,-0.05026601254940033,0.06807273626327515,-0.00214703381061554,-0.0140996128320694,-0.008659839630126953,2,-0.05538283072599967,0.02699293524800472,0.719792867498999,-0.6914494788265331,0.04239983111619949,-0.1154475063085556,-0.992408275604248,-14.39718151092529,-2.931140899658203,-29.77529907226562,-1,2,1046910.04204525,1,2,1617672707.575452,1617670944.349944,97,1.77341,0,0,65.01641,0,0,1617672684.62291,1046908.551195,0,-1.973816,98.16177,1617672708.293942,587422867,1685438189,0,0,1,1617672707.292254,1,0.14,1617672708.995634,-16.72896,-28.61477,0
1617672709.059214,54,0,0,0,0,0,0,0,0,0,1617672709.049152,-14.43119144439697,-2.815900802612305,-29.82221221923828,42.74321365356445,49.77278518676758,15.8530330657959,1046911.537513667,0.038726806640625,-0.10687255859375,-1.009368896484375,1046911.506383667,-0.01033892389386892,-0.04174771159887314,0.07564522325992584,1046911.485137667,-2.987106323242188,31.80804443359375,-100.8680114746094,1046911.488951667,-1.613432297327715,0.04269821532117109,0.1157055036365171,-0.04036619514226913,-0.05026601254940033,0.06807273626327515,-0.00214703381061554,-0.0140996128320694,-0.008659839630126953,2,-0.05538283072599967,0.02699293524800472,0.719792867498999,-0.6914494788265331,0.04239983111619949,-0.1154475063085556,-0.992408275604248,-14.39718151092529,-2.931140899658203,-29.77529907226562,-1,2,1046910.04204525,1,2,1617672707.575452,1617670944.349944,97,1.77341,0,0,65.01641,0,0,1617672684.62291,1046908.551195,0,-1.973816,98.16177,1617672708.293942,587422867,1685438189,0,0,1,1617672707.292254,1,0.14,1617672709.043882,-17.84352,-28.71065,0
1617672709.101233,55,0,0,0,0,0,0,0,0,0,1617672709.089236,-14.47969627380371,-2.768373489379883,-29.88523864746094,42.59518814086914,49.62475967407227,15.85299777984619,1046911.571137042,0.0361785888671875,-0.0995635986328125,-0.989105224609375,1046911.540005667,0.04255944490432739,-0.06630045920610428,0.06576969474554062,1046911.545113667,-2.911102294921875,31.99668884277344,-100.8875274658203,1046911.548722667,-1.608943028488298,0.03896707456226958,0.116053663039469,0.03466188162565231,-0.07856462150812149,0.06231369450688362,0.0005352906882762909,0.01337634027004242,-0.0091438889503479,2,-0.05422361637007973,0.02828678773038629,0.7183315771315224,-0.6930074681294338,0.03869516029953957,-0.1157933250069618,-0.9925193190574646,-14.3995532989502,-2.737577438354492,-29.78531646728516,-1,2,1046910.04204525,1,2,1617672707.575452,1617670944.349944,97,1.77341,0,0,65.01641,0,0,1617672684.62291,1046908.551195,0,-1.973816,98.16177,1617672708.293942,587422867,1685438189,0,0,1,1617672707.292254,1,0.14,1617672709.06213,-18.4008,-29.23071,0
1617672709.128942,56,0,0,0,0,0,0,0,0,0,1617672709.109122,-14.4631233215332,-2.805692672729492,-29.81817626953125,42.55587387084961,49.58544540405273,15.85297012329102,1046911.604757042,0.03533935546875,-0.1136474609375,-0.9824371337890625,1046911.573627042,0.05289623886346817,-0.04442339017987251,0.03310016170144081,1046911.605094042,-2.983200073242188,31.84065246582031,-100.67822265625,1046911.548722667,-1.608943028488298,0.03896707456226958,0.116053663039469,0.03466188162565231,-0.07856462150812149,0.06231369450688362,0.0005352906882762909,0.01337634027004242,-0.0091438889503479,2,-0.05422361637007973,0.02828678773038629,0.7183315771315224,-0.6930074681294338,0.03869516029953957,-0.1157933250069618,-0.9925193190574646,-14.3995532989502,-2.737577438354492,-29.78531646728516,-1,2,1046910.04204525,1,2,1617672707.575452,1617670944.349944,97,1.77341,0,0,65.01641,0,0,1617672684.62291,1046908.551195,0,-1.973816,98.16177,1617672708.293942,587422867,1685438189,0,0,1,1617672707.292254,1,0.14,1617672709.128876,-20.07263,-30.58178,0
1617672709.16827,57,0,0,0,0,0,0,0,0,0,1617672709.14882,-14.46618938446045,-2.771472930908203,-29.65561676025391,42.51558685302734,49.54515838623047,15.85289669036865,1046911.638379042,0.03607177734375,-0.1358184814453125,-0.9860687255859375,1046911.607247042,0.04781732335686684,-0.004279433749616146,0.01404710952192545,1046911.605094042,-2.983200073242188,31.84065246582031,-100.67822265625,1046911.608494042,-1.607030949917252,0.0365243225700731,0.1184540757451634,0.03402863442897797,-0.008159715682268143,0.01732439547777176,0.0006050243973731995,-0.004091411828994751,0.01013725996017456,2,-0.0542047146254195,0.0299453408221454,0.717668634782038,-0.6936259575251471,0.03626031428575516,-0.1181772574782372,-0.9923302531242371,-14.46934509277344,-2.758367538452148,-29.5872802734375,-1,2,1046910.04204525,1,2,1617672707.575452,1617670944.349944,97,1.77341,0,0,65.01641,0,0,1617672684.62291,1046908.551195,0,-1.973816,98.16177,1617672708.293942,587422867,1685438189,0,0,1,1617672707.292254,1,0.14,1617672709.161661,-20.62991,-30.88961,0
1617672709.198401,58,0,0,0,0,0,0,0,0,0,1617672709.188633,-14.44417762756348,-2.792863845825195,-29.51812744140625,42.36281585693359,49.39238739013672,15.85282802581787,1046911.672000042,0.035125732421875,-0.12152099609375,-1.002166748046875,1046911.640869042,0.01432967092841864,0.01594647578895092,0.06722217798233032,1046911.665073042,-3.0167236328125,31.9122314453125,-100.6825561523438,1046911.608494042,-1.607030949917252,0.0365243225700731,0.1184540757451634,0.03402863442897797,-0.008159715682268143,0.01732439547777176,0.0006050243973731995,-0.004091411828994751,0.01013725996017456,2,-0.0542047146254195,0.0299453408221454,0.717668634782038,-0.6936259575251471,0.03626031428575516,-0.1181772574782372,-0.9923302531242371,-14.46934509277344,-2.758367538452148,-29.5872802734375,-1,2,1046910.04204525,1,2,1617672707.575452,1617670944.349944,97,1.77341,0,0,65.01641,0,0,1617672684.62291,1046908.551195,0,-1.973816,98.16177,1617672708.293942,587422867,1685438189,0,0,1,1617672707.292254,1,0.14,1617672709.195461,-21.74447,-30.36572,0
1617672709.228201,59,0,0,0,0,0,0,0,0,0,1617672709.208654,-14.4824275970459,-2.679397583007812,-29.72805786132812,42.28152084350586,49.31109237670898,15.85279560089111,1046911.705620042,0.0284881591796875,-0.1142120361328125,-0.9953765869140625,1046911.674490042,-0.04095622152090073,-0.02674985490739346,0.06442080438137054,1046911.665073042,-3.0167236328125,31.9122314453125,-100.6825561523438,1046911.668265042,-1.603667568431336,0.03594920484648863,0.1177007395196458,-0.04126889631152153,-0.02959316410124302,0.07602016627788544,-0.002016536891460419,-0.0003534182906150818,-0.007148385047912598,2,-0.05378781217061081,0.02978349652579302,0.7165373973276044,-0.6948338854096143,0.03569279238581657,-0.1174291670322418,-0.9924396276473999,-14.5170783996582,-2.633293151855469,-29.64971160888672,-1,2,1046910.04204525,1,2,1617672707.575452,1617670944.349944,97,1.77341,0,0,65.01641,0,0,1617672684.62291,1046908.551195,0,-1.973816,98.16177,1617672708.293942,587422867,1685438189,0,0,1,1617672707.292254,1,0.14,1617672709.195461,-21.74447,-30.36572,0
1617672709.271052,60,0,0,0,0,0,0,0,0,0,1617672709.26862,-14.45750713348389,-2.5452880859375,-29.68123626708984,42.13634872436523,49.16592025756836,15.85269546508789,1046911.739242042,0.0259552001953125,-0.1204376220703125,-1.013168334960938,1046911.708112042,-0.02457565069198608,0.000216514992644079,0.03092462569475174,1046911.725051042,-3.0361328125,32.06764221191406,-100.5429382324219,1046911.728035042,-1.600884117694847,0.03499325748034627,0.116105517464816,-0.01432053279131651,0.04169295728206635,0.04445714130997658,-0.009222500026226044,-0.005615122616291046,-0.01603823900222778,2,-0.05293335367238845,0.0294692832908201,0.7156384666738844,-0.695838472403048,0.0347505658864975,-0.1158448308706284,-0.9926592707633972,-14.44064044952393,-2.584407806396484,-29.56378936767578,-1,2,1046910.04204525,1,2,1617672707.575452,1617670944.349944,97,1.77341,0,0,65.01641,0,0,1617672684.62291,1046908.551195,0,-1.973816,98.16177,1617672708.293942,587422867,1685438189,0,0,1,1617672707.292254,1,0.14,1617672709.228931,-22.30175,-30.40184,0
1617672709.297764,61,0,0,0,0,0,0,0,0,0,1617672709.288402,-14.50919342041016,-2.373435974121094,-29.86428833007812,42.08797454833984,49.11754608154297,15.8526611328125,1046911.772863042,0.0252227783203125,-0.1045074462890625,-1.017379760742188,1046911.741732042,0.02179264649748802,0.03843154385685921,0.05014891922473907,1046911.725051042,-3.0361328125,32.06764221191406,-100.5429382324219,1046911.728035042,-1.600884117694847,0.03499325748034627,0.116105517464816,-0.01432053279131651,0.04169295728206635,0.04445714130997658,-0.009222500026226044,-0.005615122616291046,-0.01603823900222778,2,-0.05293335367238845,0.0294692832908201,0.7156384666738844,-0.695838472403048,0.0347505658864975,-0.1158448308706284,-0.9926592707633972,-14.44064044952393,-2.584407806396484,-29.56378936767578,-1,2,1046910.04204525,1,2,1617672707.575452,1617670944.349944,97,1.77341,0,0,65.01641,0,0,1617672684.62291,1046908.551195,0,-1.973816,98.16177,1617672708.293942,587422867,1685438189,0,0,1,1617672707.292254,1,0.14,1617672709.294765,-23.3754,-31.5092,0
1617672709.331176,62,0,0,0,0,0,0,0,0,0,1617672709.328191,-14.3830680847168,-2.53497314453125,-29.72057342529297,42.08638763427734,49.11595916748047,15.8526029586792,1046911.806483042,0.023193359375,-0.1188812255859375,-1.002685546875,1046911.775353042,0.04424202814698219,-0.03030038066208363,0.00549410143867135,1046911.785035042,-2.994216918945312,32.14920043945312,-100.9289703369141,1046911.787806042,-1.599098797091558,0.03423700729076338,0.1175628852845183,0.006383743137121201,-0.04069939255714417,-0.009366353042423725,-0.01286051049828529,0.005140170454978943,-0.007240414619445801,2,-0.05319571947184028,0.03020740643552115,0.7149978291187081,-0.696445186919632,0.03399404138326645,-0.1172922626137733,-0.9925154447555542,-14.40691757202148,-2.562931060791016,-29.76047515869141,-1,2,1046910.04204525,1,2,1617672707.575452,1617670944.349944,97,1.77341,0,0,65.01641,0,0,1617672684.62291,1046908.551195,0,-1.973816,98.16177,1617672708.293942,587422867,1685438189,0,0,1,1617672707.292254,1,0.14,1617672709.294765,-23.3754,-31.5092,0
1617672709.367684,63,0,0,0,0,0,0,0,0,0,1617672709.348033,-14.46068477630615,-2.609565734863281,-29.72333526611328,42.08717346191406,49.11674499511719,15.85257339477539,1046911.840105042,0.0226898193359375,-0.1193084716796875,-0.9891204833984375,1046911.808975042,0.006489857099950314,-0.04606922343373299,-0.004356398712843657,1046911.845014042,-2.986846923828125,32.02133178710938,-100.8121948242188,1046911.787806042,-1.599098797091558,0.03423700729076338,0.1175628852845183,0.006383743137121201,-0.04069939255714417,-0.009366353042423725,-0.01286051049828529,0.005140170454978943,-0.007240414619445801,2,-0.05319571947184028,0.03020740643552115,0.7149978291187081,-0.696445186919632,0.03399404138326645,-0.1172922626137733,-0.9925154447555542,-14.40691757202148,-2.562931060791016,-29.76047515869141,-1,2,1046910.04204525,1,2,1617672707.575452,1617670944.349944,97,1.77341,0,0,65.01641,0,0,1617672684.62291,1046908.551195,0,-1.973816,98.16177,1617672708.293942,587422867,1685438189,0,0,1,1617672707.292254,1,0.14,1617672709.362114,-23.3754,-29.34684,0
1617672709.401625,64,0,0,0,0,0,0,0,0,0,1617672709.387923,-14.56987953186035,-2.561336517333984,-29.87236785888672,42.07588958740234,49.10546112060547,15.85251235961914,1046911.873726042,0.024444580078125,-0.116546630859375,-0.99237060546875,1046911.842595042,0.02410480380058289,-0.007305317092686892,0.008138886652886868,1046911.845014042,-2.986846923828125,32.02133178710938,-100.8121948242188,1046911.847577042,-1.599037053886055,0.0317230704219435,0.1173351868778884,0.0149827478453517,-0.01216123532503843,0.002182611031457782,-0.009496383368968964,0.003296613693237305,0.002054393291473389,2,-0.05221877265172855,0.03099962667324875,0.715048675898614,-0.6964320318375661,0.03149966150522232,-0.1170661374926567,-0.9926244616508484,-14.49227905273438,-2.606014251708984,-29.77416229248047,-1,2,1046910.04204525,1,2,1617672707.575452,1617670944.349944,97,1.77341,0,0,65.01641,0,0,1617672684.62291,1046908.551195,0,-1.973816,98.16177,1617672708.293942,587422867,1685438189,0,0,1,1617672707.292254,1,0.14,1617672709.401597,-23.3754,-30.24658,0
1617672709.437443,65,0,0,0,0,0,0,0,0,0,1617672709.42776,-14.47076034545898,-2.566268920898438,-29.73700714111328,42.10458755493164,49.13415908813477,15.85245132446289,1046911.907348042,0.0273895263671875,-0.1187286376953125,-0.9837493896484375,1046911.876216042,0.03231053426861763,-0.001030376995913684,-0.01190672721713781,1046911.904992042,-3.005599975585938,32.1160888671875,-100.87939453125,1046911.847577042,-1.599037053886055,0.0317230704219435,0.1173351868778884,0.0149827478453517,-0.01216123532503843,0.002182611031457782,-0.009496383368968964,0.003296613693237305,0.002054393291473389,2,-0.05221877265172855,0.03099962667324875,0.715048675898614,-0.6964320318375661,0.03149966150522232,-0.1170661374926567,-0.9926244616508484,-14.49227905273438,-2.606014251708984,-29.77416229248047,-1,2,1046910.04204525,1,2,1617672707.575452,1617670944.349944,97,1.77341,0,0,65.01641,0,0,1617672684.62291,1046908.551195,0,-1.973816,98.16177,1617672708.293942,587422867,1685438189,0,0,1,1617672707.292254,1,0.14,1617672709.428842,-22.7814,-30.66986,0
1617672709.46712,66,0,0,0,0,0,0,0,0,0,1617672709.447695,-14.46981430053711,-2.634319305419922,-29.94655609130859,42.12624359130859,49.15581512451172,15.85241985321045,1046911.940968042,0.0350494384765625,-0.1162261962890625,-1.01171875,1046911.909838042,0.009653160348534584,0.02487179450690746,-0.02300411835312843,1046911.904992042,-3.005599975585938,32.1160888671875,-100.87939453125,1046911.907348042,-1.599657606295988,0.03088379955540624,0.1183058147028396,0.0008051022887229919,0.01499647181481123,-0.02126406505703926,-0.003654882311820984,-0.001019030809402466,0.008558213710784912,2,-0.05224623270011261,0.03165571952675134,0.7152608710410377,-0.6961826307200794,0.03066304698586464,-0.1180300340056419,-0.9925364851951599,-14.45818710327148,-2.576313018798828,-29.86832427978516,-1,2,1046910.04204525,1,2,1617672707.575452,1617670944.349944,97,1.77341,0,0,65.01641,0,0,1617672684.62291,1046909.499073,0,-2.016083,98.16224,1617672708.293942,587422867,1685438189,0,0,1,1617672707.292254,1,0.14,1617672709.461702,-22.7814,-31.14642,0
1617672709.497156,67,0,0,0,0,0,0,0,0,0,1617672709.487423,-14.45734786987305,-2.572315216064453,-29.90696716308594,42.17376327514648,49.20333480834961,15.85236072540283,1046911.974589042,0.0281524658203125,-0.1149139404296875,-0.9902801513671875,1046911.943458042,0.0469810925424099,0.001289236242882907,-0.0221196822822094,1046911.964973042,-3.014907836914062,32.10821533203125,-101.0811309814453,1046911.907348042,-1.599657606295988,0.03088379955540624,0.1183058147028396,0.0008051022887229919,0.01499647181481123,-0.02126406505703926,-0.003654882311820984,-0.001019030809402466,0.008558213710784912,2,-0.05224623270011261,0.03165571952675134,0.7152608710410377,-0.6961826307200794,0.03066304698586464,-0.1180300340056419,-0.9925364851951599,-14.45818710327148,-2.576313018798828,-29.86832427978516,-1,2,1046910.04204525,1,2,1617672707.575452,1617670944.349944,97,1.77341,0,0,65.01641,0,0,1617672684.62291,1046909.499073,0,-2.016083,98.16224,1617672708.293942,587422867,1685438189,0,0,1,1617672707.292254,1,0.14,1617672709.495525,-22.7814,-31.08037,0
1617672709.536821,68,0,0,0,0,0,0,0,0,0,1617672709.527738,-14.37807655334473,-2.555824279785156,-29.8973388671875,42.24986267089844,49.27943420410156,15.8523006439209,1046912.008211042,0.03814697265625,-0.125457763671875,-1.025405883789062,1046911.977080042,0.03190706670284271,0.01296772994101048,-0.04040175303816795,1046911.964973042,-3.014907836914062,32.10821533203125,-101.0811309814453,1046911.967119042,-1.600928669864173,0.03119234153934321,0.1196230836990412,0.0426042452454567,0.002719431649893522,-0.0325184240937233,-0.002842355519533157,0.003996811807155609,0.002166867256164551,2,-0.05279386697759419,0.0320538101661408,0.7156598693828502,-0.695712836051702,0.03096440993249416,-0.1193379908800125,-0.9923707246780396,-14.41965675354004,-2.635231018066406,-29.91984558105469,-1,2,1046910.04204525,1,2,1617672707.575452,1617670944.349944,97,1.77341,0,0,65.01641,0,0,1617672684.62291,1046909.499073,0,-2.016083,98.16224,1617672708.293942,587422867,1685438189,0,0,1,1617672707.292254,1,0.14,1617672709.528722,-22.7814,-31.52106,0
1617672709.5703,69,0,0,0,0,0,0,0,0,0,1617672709.567259,-14.47869110107422,-2.508197784423828,-29.85726165771484,42.29700469970703,49.32657623291016,15.8522424697876,1046912.041831042,0.033233642578125,-0.114410400390625,-0.9954833984375,1046912.010701042,-0.00854635052382946,-0.06220664829015732,-0.02172446995973587,1046912.024951042,-2.954925537109375,32.11735534667969,-100.9825897216797,1046912.026889042,-1.602557843720805,0.02966700219028341,0.1191299995735438,0.0007842592895030975,-0.07522628456354141,-0.01836477220058441,0.004361167550086975,0.002957917749881744,-0.007677078247070312,2,-0.05205041879092463,0.03245005251104965,0.7162794890962898,-0.6951126020648275,0.02945241332054138,-0.1188484206795692,-0.9924755096435547,-14.46003532409668,-2.495704650878906,-29.81632995605469,-1,2,1046910.04204525,1,2,1617672707.575452,1617670944.349944,97,1.77341,0,0,65.01641,0,0,1617672684.62291,1046909.499073,0,-2.016083,98.16224,1617672708.293942,587422867,1685438189,0,0,1,1617672707.292254,1,0.14,1617672709.528722,-22.7814,-31.52106,0
1617672709.596769,70,0,0,0,0,0,0,0,0,0,1617672709.587176,-14.61342430114746,-2.488990783691406,-29.83369445800781,42.33439254760742,49.36396408081055,15.85221385955811,1046912.075452042,0.0333709716796875,-0.1222991943359375,-0.996795654296875,1046912.044321042,0.04062385857105255,-0.05306295305490494,-0.03529913350939751,1046912.024951042,-2.954925537109375,32.11735534667969,-100.9825897216797,1046912.026889042,-1.602557843720805,0.02966700219028341,0.1191299995735438,0.0007842592895030975,-0.07522628456354141,-0.01836477220058441,0.004361167550086975,0.002957917749881744,-0.007677078247070312,2,-0.05205041879092463,0.03245005251104965,0.7162794890962898,-0.6951126020648275,0.02945241332054138,-0.1188484206795692,-0.9924755096435547,-14.46003532409668,-2.495704650878906,-29.81632995605469,-1,2,1046910.04204525,1,2,1617672707.575452,1617670944.349944,97,1.77341,0,0,65.01641,0,0,1617672684.62291,1046909.499073,0,-2.016083,98.16224,1617672708.293942,587422867,1685438189,0,0,1,1617672707.292254,1,0.14,1617672709.595641,-22.7814,-30.23515,0
1617672709.643068,71,0,0,0,0,0,0,0,0,0,1617672709.626987,-14.62199783325195,-2.541000366210938,-29.73066711425781,42.37186431884766,49.40143585205078,15.85215759277344,1046912.109074042,0.03094482421875,-0.123016357421875,-0.9821624755859375,1046912.077943042,0.04056766629219055,-0.03385543450713158,-0.01802374236285686,1046912.084930042,-3.149459838867188,32.15885925292969,-100.7971496582031,1046912.086660042,-1.604161195244888,0.02728991436012032,0.1205295296165394,0.02661339938640594,-0.02640867047011852,-0.009263475425541401,0.004359904676675797,-0.006211668252944946,0.006718754768371582,2,-0.05165751555124309,0.03381967589366059,0.7168610992871206,-0.6944767979437751,0.02708856575191021,-0.120237909257412,-0.9923754334449768,-14.62199783325195,-2.541000366210938,-29.73066711425781,-1,2,1046910.04204525,1,2,1617672707.575452,1617670944.349944,97,1.77341,0,0,65.01641,0,0,1617672684.62291,1046909.499073,0,-2.016083,98.16224,1617672708.293942,587422867,1685438189,0,0,1,1617672707.292254,1,0.14,1617672709.64304,-22.7814,-30.88082,0
1617672709.666571,72,0,0,0,0,0,0,0,0,0,1617672709.647074,-14.62462043762207,-2.527606964111328,-29.85593414306641,42.37150192260742,49.40107345581055,15.85212993621826,1046912.142694042,0.0323638916015625,-0.12628173828125,-0.9900054931640625,1046912.111564042,0.04311897605657578,0.007653658743947744,0.001389371114782989,1046912.084930042,-3.149459838867188,32.15885925292969,-100.7971496582031,1046912.086660042,-1.604161195244888,0.02728991436012032,0.1205295296165394,0.02661339938640594,-0.02640867047011852,-0.009263475425541401,0.004359904676675797,-0.006211668252944946,0.006718754768371582,2,-0.05165751555124309,0.03381967589366059,0.7168610992871206,-0.6944767979437751,0.02708856575191021,-0.120237909257412,-0.9923754334449768,-14.62199783325195,-2.541000366210938,-29.73066711425781,-1,2,1046910.04204525,1,2,1617672707.575452,1617670944.349944,97,1.77341,0,0,65.01641,0,0,1617672684.62291,1046909.499073,0,-2.016083,98.16224,1617672708.293942,587422867,1685438189,0,0,1,1617672707.292254,1,0.14,1617672709.662264,-22.7814,-31.62049,0
1617672709.706302,73,0,0,0,0,0,0,0,0,0,1617672709.686835,-14.57467269897461,-2.747964859008789,-29.86164093017578,42.36291122436523,49.39248275756836,15.85207557678223,1046912.176316042,0.031768798828125,-0.1180267333984375,-0.9930267333984375,1046912.145184042,0.02039502002298832,0.02373222634196281,0.005259476602077484,1046912.144913042,-3.129257202148438,31.91734313964844,-100.9256744384766,1046912.146431042,-1.604094213973491,0.02810430833735402,0.1217657761382421,0.01042061578482389,0.01330843195319176,0.005857883952558041,0.006317771971225739,-0.0006509870290756226,-0.009398460388183594,2,-0.05237907245426043,0.03397895046400852,0.7167838234892716,-0.694494671968253,0.02789254300296307,-0.1214650943875313,-0.9922037124633789,-14.57431983947754,-2.744535446166992,-29.74758911132812,-1,2,1046910.04204525,1,2,1617672707.575452,1617670944.349944,97,1.77341,0,0,65.01641,0,0,1617672684.62291,1046909.499073,0,-2.016083,98.16224,1617672708.293942,587422867,1685438189,0,0,1,1617672707.292254,1,0.14,1617672709.701642,-22.7814,-31.9731,0
1617672709.736365,74,0,0,0,0,0,0,0,0,0,1617672709.727048,-14.49535751342773,-2.844215393066406,-29.79344940185547,42.3991813659668,49.42875289916992,15.85201930999756,1046912.209937042,0.035003662109375,-0.1301727294921875,-1.002365112304688,1046912.178806042,0.01184440869837999,0.02201289124786854,-0.01654648594558239,1046912.204893042,-3.002517700195312,31.86550903320312,-100.9336853027344,1046912.146431042,-1.604094213973491,0.02810430833735402,0.1217657761382421,0.01042061578482389,0.01330843195319176,0.005857883952558041,0.006317771971225739,-0.0006509870290756226,-0.009398460388183594,2,-0.05237907245426043,0.03397895046400852,0.7167838234892716,-0.694494671968253,0.02789254300296307,-0.1214650943875313,-0.9922037124633789,-14.57431983947754,-2.744535446166992,-29.74758911132812,-1,2,1046910.04204525,1,2,1617672707.575452,1617670944.349944,97,1.77341,0,0,65.01641,0,0,1617672684.62291,1046909.499073,0,-2.016083,98.16224,1617672708.293942,587422867,1685438189,0,0,1,1617672707.292254,1,0.14,1617672709.728726,-22.7814,-32.2047,0
1617672709.76611,75,0,0,0,0,0,0,0,0,0,1617672709.746803,-14.5108642578125,-2.767200469970703,-29.916259765625,42.41859817504883,49.44816970825195,15.85199165344238,1046912.243557042,0.030731201171875,-0.1402130126953125,-0.9712371826171875,1046912.212427042,0.002482598647475243,-0.02478763833642006,-0.0192948691546917,1046912.204893042,-3.002517700195312,31.86550903320312,-100.9336853027344,1046912.206202042,-1.604808458766363,0.02893797604240658,0.1220528791340813,-0.01362102292478085,-0.01303975377231836,-0.01941447518765926,0.007871996611356735,-0.01046732813119888,-0.01012831926345825,2,-0.05276529217486774,0.03381137392129968,0.7170021784047845,-0.6942481430988839,0.02871869131922722,-0.121750071644783,-0.9921452403068542,-14.45586585998535,-2.834255218505859,-29.77629852294922,-1,2,1046910.04204525,1,2,1617672707.575452,1617670944.349944,97,1.77341,0,0,65.01641,0,0,1617672684.62291,1046909.499073,0,-2.016083,98.16224,1617672708.293942,587422867,1685438189,0,0,1,1617672707.292254,1,0.14,1617672709.761657,-22.7814,-28.52699,0
1617672709.810217,76,0,0,0,0,0,0,0,0,0,1617672709.806472,-14.53297901153564,-2.697746276855469,-29.87779998779297,42.33144760131836,49.36101913452148,15.85190582275391,1046912.277179042,0.0277862548828125,-0.125732421875,-0.9910888671875,1046912.246049042,-0.01531930174678564,0.02293194644153118,0.02397750504314899,1046912.264876042,-3.027755737304688,31.93145751953125,-100.99072265625,1046912.265973042,-1.604163674597033,0.0288275526074351,0.1206999424762892,-0.06381183117628098,0.01536665763705969,0.03848171234130859,-0.001315776258707047,-0.007080093026161194,0.002016723155975342,2,-0.05226766560284148,0.03334698745772752,0.7168174889046008,-0.6944989639508552,0.0286138579249382,-0.1204070895910263,-0.9923121333122253,-14.47829914093018,-2.731060028076172,-29.86988830566406,-1,2,1046910.04204525,1,2,1617672707.575452,1617670944.349944,97,1.77341,0,0,65.01641,0,0,1617672684.62291,1046909.499073,0,-2.016083,98.16224,1617672708.293942,587422867,1685438189,0,0,1,1617672707.292254,1,0.14,1617672709.795521,-22.7814,-29.7488,0
1617672709.835763,77,0,0,0,0,0,0,0,0,0,1617672709.826477,-14.55140113830566,-2.584785461425781,-30.03481292724609,42.28519058227539,49.31476211547852,15.85187911987305,1046912.310800042,0.0318603515625,-0.10076904296875,-0.992462158203125,1046912.279669042,-0.05690589174628258,0.01585779339075089,0.0403309129178524,1046912.264876042,-3.027755737304688,31.93145751953125,-100.99072265625,1046912.265973042,-1.604163674597033,0.0288275526074351,0.1206999424762892,-0.06381183117628098,0.01536665763705969,0.03848171234130859,-0.001315776258707047,-0.007080093026161194,0.002016723155975342,2,-0.05226766560284148,0.03334698745772752,0.7168174889046008,-0.6944989639508552,0.0286138579249382,-0.1204070895910263,-0.9923121333122253,-14.47829914093018,-2.731060028076172,-29.86988830566406,-1,2,1046910.04204525,1,2,1617672707.575452,1617670944.349944,97,1.77341,0,0,65.01641,0,0,1617672684.62291,1046909.499073,0,-2.016083,98.16224,1617672708.293942,587422867,1685438189,0,0,1,1617672707.292254,1,0.14,1617672709.828718,-22.7814,-30.09473,0
1617672709.870935,78,0,0,0,0,0,0,0,0,0,1617672709.866161,-14.65694618225098,-2.284515380859375,-29.83766937255859,42.26053619384766,49.29010772705078,15.85181903839111,1046912.344420042,0.033660888671875,-0.1050262451171875,-1.002761840820312,1046912.313290042,-0.05915573239326477,0.01156903803348541,0.01549214031547308,1046912.324859042,-3.1298828125,32.25531005859375,-100.9651489257812,1046912.325743042,-1.602270962517124,0.02941760004999051,0.1178049237659757,-0.07448428124189377,-0.02086790651082993,-0.001567386090755463,0.004894006997346878,0.0169009268283844,-0.01093119382858276,2,-0.05150598321567654,0.03205396937256661,0.7162211920910249,-0.6952315168800383,0.02920949459075928,-0.1175326332449913,-0.9926393628120422,-14.56131553649902,-2.463050842285156,-29.82302856445312,-1,2,1046910.04204525,1,2,1617672707.575452,1617670944.349944,97,1.77341,0,0,65.01641,0,0,1617672684.62291,1046909.499073,0,-2.016083,98.16224,1617672708.293942,587422867,1685438189,0,0,1,1617672707.292254,1,0.14,1617672709.828718,-22.7814,-30.09473,0
1617672709.905966,79,0,0,0,0,0,0,0,0,0,1617672709.886146,-14.73595142364502,-2.217006683349609,-30.07355499267578,42.266357421875,49.29592895507812,15.85178852081299,1046912.378042042,0.02789306640625,-0.1152191162109375,-0.9771575927734375,1046912.346912042,-0.05283099040389061,-0.03991172835230827,-0.01021615229547024,1046912.324859042,-3.1298828125,32.25531005859375,-100.9651489257812,1046912.325743042,-1.602270962517124,0.02941760004999051,0.1178049237659757,-0.07448428124189377,-0.02086790651082993,-0.001567386090755463,0.004894006997346878,0.0169009268283844,-0.01093119382858276,2,-0.05150598321567654,0.03205396937256661,0.7162211920910249,-0.6952315168800383,0.02920949459075928,-0.1175326332449913,-0.9926393628120422,-14.56131553649902,-2.463050842285156,-29.82302856445312,-1,2,1046910.04204525,1,2,1617672707.575452,1617670944.349944,97,1.77341,0,0,65.01641,0,0,1617672684.62291,1046909.499073,0,-2.016083,98.16224,1617672708.293942,587422867,1685438189,0,0,1,1617672707.292254,1,0.14,1617672709.895646,-22.7814,-30.81376,0
1617672709.939886,80,0,0,0,0,0,0,0,0,0,1617672709.925984,-14.56002902984619,-2.419837951660156,-29.73954772949219,42.25685501098633,49.28642654418945,15.85172557830811,1046912.411663042,0.023834228515625,-0.123992919921875,-0.976104736328125,1046912.380532042,-0.04990231245756149,-0.01395922526717186,-0.004595284350216389,1046912.384838042,-3.0887451171875,32.26319885253906,-100.8410034179688,1046912.385514042,-1.602464471566087,0.02742441205758894,0.1139655101630366,-0.06147493422031403,-0.007419825065881014,0.006915138103067875,-0.004110660403966904,-0.01210500299930573,0.01682102680206299,2,-0.04945669541625427,0.03137435633631756,0.7164375482933694,-0.6951883453272911,0.02724309265613556,-0.1137189716100693,-0.993139386177063,-14.55355167388916,-2.406166076660156,-29.71691131591797,-1,2,1046910.04204525,1,2,1617672707.575452,1617670944.349944,97,1.77341,0,0,65.01641,0,0,1617672684.62291,1046909.499073,0,-2.016083,98.16224,1617672708.293942,587422867,1685438189,0,0,1,1617672707.292254,1,0.14,1617672709.939867,-22.7814,-29.1011,0
1617672709.975677,81,0,0,0,0,0,0,0,0,0,1617672709.965856,-14.6566743850708,-2.275836944580078,-29.79405975341797,42.17885971069336,49.20843124389648,15.85166549682617,1046912.445285042,0.0175323486328125,-0.1002960205078125,-0.995880126953125,1046912.414153042,-0.05797781422734261,0.03542270511388779,0.03236965835094452,1046912.444815042,-3.13323974609375,32.48149108886719,-100.9820098876953,1046912.385514042,-1.602464471566087,0.02742441205758894,0.1139655101630366,-0.06147493422031403,-0.007419825065881014,0.006915138103067875,-0.004110660403966904,-0.01210500299930573,0.01682102680206299,2,-0.04945669541625427,0.03137435633631756,0.7164375482933694,-0.6951883453272911,0.02724309265613556,-0.1137189716100693,-0.993139386177063,-14.55355167388916,-2.406166076660156,-29.71691131591797,-1,2,1046910.04204525,1,2,1617672707.575452,1617670944.349944,97,1.77341,0,0,65.01641,0,0,1617672684.62291,1046909.499073,0,-2.016083,98.16224,1617672708.293942,587422867,1685438189,0,0,1,1617672707.292254,1,0.14,1617672709.962343,-22.7814,-29.48608,0
1617672710.005399,82,0,0,0,0,0,0,0,0,0,1617672709.986376,-14.59263896942139,-2.150161743164062,-29.93641662597656,42.17216110229492,49.20173263549805,15.85163593292236,1046912.478905042,0.0171356201171875,-0.103363037109375,-1.011062622070312,1046912.481395042,-0.0868331640958786,0.02649472467601299,-0.02160010114312172,1046912.444815042,-3.13323974609375,32.48149108886719,-100.9820098876953,1046912.445285042,-1.600758271242166,0.02942730547864738,0.1092198255563215,-0.1037207245826721,0.03974289447069168,0.0120190316811204,-0.01253925636410713,0.01206372678279877,-0.01427769660949707,2,-0.04855191334286922,0.02893400002089769,0.715913537917101,-0.695897638897037,0.02924774028360844,-0.1090028062462807,-0.9936110973358154,-14.59529495239258,-2.231819152832031,-29.81104278564453,-1,2,1046910.04204525,1,2,1617672707.575452,1617670944.349944,97,1.77341,0,0,65.01641,0,0,1617672684.62291,1046909.499073,0,-2.016083,98.16224,1617672708.293942,587422867,1685438189,0,0,1,1617672707.292254,1,0.14,1617672710.002177,-22.7814,-29.83731,0
1617672710.035371,83,0,0,0,0,0,0,0,0,0,1617672710.025544,-14.53108596801758,-2.097179412841797,-29.773193359375,42.19792556762695,49.22749710083008,15.85157680511475,1046912.512526042,0.0263214111328125,-0.1031341552734375,-1.0364990234375,1046912.481395042,-0.0868331640958786,0.02649472467601299,-0.02160010114312172,1046912.504791042,-3.133804321289062,32.72503662109375,-100.9158172607422,1046912.445285042,-1.600758271242166,0.02942730547864738,0.1092198255563215,-0.1037207245826721,0.03974289447069168,0.0120190316811204,-0.01253925636410713,0.01206372678279877,-0.01427769660949707,2,-0.04855191334286922,0.02893400002089769,0.715913537917101,-0.695897638897037,0.02924774028360844,-0.1090028062462807,-0.9936110973358154,-14.59529495239258,-2.231819152832031,-29.81104278564453,-1,2,1046910.04204525,1,2,1617672707.575452,1617670944.349944,97,1.77341,0,0,65.01641,0,0,1617672684.62291,1046909.499073,0,-2.016083,98.16224,1617672708.293942,587422867,1685438189,0,0,1,1617672707.292254,1,0.14,1617672710.028784,-22.7814,-30.36723,0
1617672710.074902,84,0,0,0,0,0,0,0,0,0,1617672710.066249,-14.52239036560059,-2.048370361328125,-29.76128387451172,42.18986129760742,49.21943283081055,15.85151672363281,1046912.546148042,0.0336761474609375,-0.098907470703125,-1.031524658203125,1046912.515018042,-0.02582121081650257,0.008668056689202785,-0.003522563260048628,1046912.504791042,-3.133804321289062,32.72503662109375,-100.9158172607422,1046912.505056042,-1.601172881311762,0.0302869496704614,0.1045830389303983,-0.05975820496678352,0.0258865412324667,0.000881501124240458,-0.00332232192158699,0.001944988965988159,-0.0432581901550293,2,-0.04724325989551058,0.02698221687320065,0.7161501550813992,-0.6958226167771328,0.0301168616861105,-0.1043924987316132,-0.9940800666809082,-14.55995559692383,-2.006744384765625,-29.75774383544922,-1,2,1046910.04204525,1,2,1617672707.575452,1617670944.349944,97,1.77341,0,0,65.01641,0,0,1617672684.62291,1046909.499073,0,-2.016083,98.16224,1617672708.293942,587422867,1685438189,0,0,1,1617672707.292254,1,0.14,1617672710.065654,-22.7814,-30.63376,0
1617672710.108974,85,0,0,0,0,0,0,0,0,0,1617672710.105099,-14.57442569732666,-2.100181579589844,-29.52629089355469,42.15205001831055,49.18162155151367,15.8514928817749,1046912.57976725,0.0372772216796875,-0.089447021484375,-1.026519775390625,1046912.548638042,0.02437697909772396,-0.01840776950120926,0.01653636619448662,1046912.564768042,-3.089996337890625,32.4471435546875,-100.4149475097656,1046912.56482525,-1.600580279544831,0.02851589552318017,0.1040470812993848,0.04374366253614426,-0.07511778175830841,0.01913627982139587,0.01186443865299225,0.01572469621896744,-0.04225033521652222,2,-0.04643101647605361,0.02739242046085008,0.7159981923745236,-0.6960175402387212,0.02835783734917641,-0.1038594543933868,-0.9941876530647278,-14.53582572937012,-2.212383270263672,-29.31500244140625,-1,2,1046910.04204525,1,2,1617672707.575452,1617670944.349944,97,1.77341,0,0,65.01641,0,0,1617672684.62291,1046909.499073,0,-2.016083,98.16224,1617672708.293942,587422867,1685438189,0,0,1,1617672707.292254,1,0.14,1617672710.09547,-22.7814,-31.37304,0
1617672710.134738,86,0,0,0,0,0,0,0,0,0,1617672710.125166,-14.67268371582031,-2.010738372802734,-29.79297637939453,42.14968490600586,49.17925643920898,15.85148811340332,1046912.61338825,0.026123046875,-0.1010284423828125,-0.980133056640625,1046912.58225725,0.07174236327409744,-0.1005026400089264,0.00236222380772233,1046912.564768042,-3.089996337890625,32.4471435546875,-100.4149475097656,1046912.56482525,-1.600580279544831,0.02851589552318017,0.1040470812993848,0.04374366253614426,-0.07511778175830841,0.01913627982139587,0.01186443865299225,0.01572469621896744,-0.04225033521652222,2,-0.04643101647605361,0.02739242046085008,0.7159981923745236,-0.6960175402387212,0.02835783734917641,-0.1038594543933868,-0.9941876530647278,-14.53582572937012,-2.212383270263672,-29.31500244140625,-1,2,1046910.04204525,1,2,1617672707.575452,1617670944.349944,97,1.77341,0,0,65.01641,0,0,1617672684.62291,1046909.499073,0,-2.016083,98.16224,1617672708.293942,587422867,1685438189,0,0,1,1617672707.292254,1,0.14,1617672710.128742,-22.7814,-28.64855,0
1617672710.183441,87,0,0,0,0,0,0,0,0,0,1617672710.165028,-14.80070781707764,-2.003498077392578,-29.684814453125,42.17088317871094,49.20045471191406,15.85146713256836,1046912.64701025,0.0222625732421875,-0.1127777099609375,-0.969512939453125,1046912.64950025,-0.009926400147378445,0.05231913179159164,-0.001584314508363605,1046912.62474425,-3.329971313476562,32.599853515625,-100.7410430908203,1046912.62459625,-1.600606029949996,0.02385103733445418,0.1057761298753049,-0.01030245795845985,-0.02839447557926178,-0.009547995403409004,-0.001956339925527573,-0.006206892430782318,0.02678191661834717,2,-0.04536137651819593,0.02963616746295203,0.7160738070313146,-0.6959183219011527,0.02371548302471638,-0.1055789962410927,-0.9941281080245972,-14.73915767669678,-2.116119384765625,-29.56806945800781,-1,2,1046910.04204525,1,2,1617672707.575452,1617670944.349944,97,1.77341,0,0,65.01641,0,0,1617672684.62291,1046909.499073,0,-2.016083,98.16224,1617672708.293942,587422867,1685438189,0,0,1,1617672707.292254,1,0.14,1617672710.18337,-22.7814,-29.61544,0
1617672710.204827,88,0,0,0,0,0,0,0,0,0,1617672710.185149,-14.67822456359863,-2.091716766357422,-29.71501922607422,42.17202758789062,49.20159912109375,15.85144710540771,1046912.68063025,0.029937744140625,-0.0999603271484375,-1.002593994140625,1046912.64950025,-0.009926400147378445,0.05231913179159164,-0.001584314508363605,1046912.62474425,-3.329971313476562,32.599853515625,-100.7410430908203,1046912.62459625,-1.600606029949996,0.02385103733445418,0.1057761298753049,-0.01030245795845985,-0.02839447557926178,-0.009547995403409004,-0.001956339925527573,-0.006206892430782318,0.02678191661834717,2,-0.04536137651819593,0.02963616746295203,0.7160738070313146,-0.6959183219011527,0.02371548302471638,-0.1055789962410927,-0.9941281080245972,-14.73915767669678,-2.116119384765625,-29.56806945800781,-1,2,1046910.04204525,1,2,1617672707.575452,1617670944.349944,97,1.77341,0,0,65.01641,0,0,1617672684.62291,1046909.499073,0,-2.016083,98.16224,1617672708.293942,587422867,1685438189,0,0,1,1617672707.292254,1,0.14,1617672710.195429,-22.7814,-29.73941,0
1617672710.244172,89,0,0,0,0,0,0,0,0,0,1617672710.224838,-14.60095691680908,-2.044723510742188,-29.67139434814453,42.19411849975586,49.22369003295898,15.85139560699463,1046912.71425225,0.0267181396484375,-0.1069183349609375,-0.982940673828125,1046912.68312025,0.03169853985309601,0.01065264455974102,-0.0137381823733449,1046912.68472525,-3.178939819335938,32.64175415039062,-100.7583923339844,1046912.68436725,-1.6009352176643,0.02569842070700024,0.1045345578584281,0.02536537870764732,0.005278073716908693,-0.01298632752150297,0.004336748272180557,0.004414476454257965,-0.001316308975219727,2,-0.04558665066120855,0.02855574277263101,0.716175101149462,-0.6958446594290033,0.02555532567203045,-0.1043442785739899,-0.9942128658294678,-14.62751388549805,-2.068202972412109,-29.57977294921875,-1,2,1046910.04204525,1,2,1617672707.575452,1617670944.349944,97,1.77341,0,0,65.01641,0,0,1617672684.62291,1046909.499073,0,-2.016083,98.16224,1617672708.293942,587422867,1685438189,0,0,1,1617672707.292254,1,0.14,1617672710.239851,-22.7814,-28.54794,0
1617672710.274321,90,0,0,0,0,0,0,0,0,0,1617672710.264621,-14.69450664520264,-2.008243560791016,-29.70803833007812,42.203125,49.23269653320312,15.85134124755859,1046912.74787325,0.0194854736328125,-0.1189117431640625,-0.986175537109375,1046912.71674225,0.04476267844438553,0.02919037640094757,-0.007137005217373371,1046912.74470325,-3.168991088867188,32.71371459960938,-100.8482055664062,1046912.68436725,-1.6009352176643,0.02569842070700024,0.1045345578584281,0.02536537870764732,0.005278073716908693,-0.01298632752150297,0.004336748272180557,0.004414476454257965,-0.001316308975219727,2,-0.04558665066120855,0.02855574277263101,0.716175101149462,-0.6958446594290033,0.02555532567203045,-0.1043442785739899,-0.9942128658294678,-14.62751388549805,-2.068202972412109,-29.57977294921875,-1,2,1046910.04204525,1,2,1617672707.575452,1617670944.349944,97,1.77341,0,0,65.01641,0,0,1617672684.62291,1046909.499073,0,-2.016083,98.16224,1617672708.293942,587422867,1685438189,0,0,1,1617672707.292254,1,0.14,1617672710.262347,-22.7814,-29.17358,0
1617672710.304256,91,0,0,0,0,0,0,0,0,0,1617672710.284758,-14.66017150878906,-2.005634307861328,-29.80803680419922,42.18406295776367,49.2136344909668,15.85131549835205,1046912.78149325,0.0158843994140625,-0.1060638427734375,-0.995086669921875,1046912.75036325,-0.02908784337341785,0.0266965925693512,0.01671719551086426,1046912.74470325,-3.168991088867188,32.71371459960938,-100.8482055664062,1046912.74413825,-1.601234439918053,0.02686393770053492,0.1061722448807196,-0.02233412116765976,0.01872416958212852,0.01201465912163258,-0.009634764865040779,-0.01281677186489105,0.008567154407501221,2,-0.04656866198045884,0.02874440399121579,0.7162139219801484,-0.6957318288295671,0.02670945413410664,-0.1059728860855103,-0.9940102100372314,-14.6316385269165,-1.989532470703125,-29.69083404541016,-1,2,1046910.04204525,1,2,1617672707.575452,1617670944.349944,97,1.77341,0,0,65.01641,0,0,1617672684.62291,1046909.499073,0,-2.016083,98.16224,1617672708.293942,587422867,1685438189,0,0,1,1617672707.292254,1,0.14,1617672710.30031,-22.7814,-29.23496,0
1617672710.350321,92,0,0,0,0,0,0,0,0,0,1617672710.344393,-14.64538097381592,-1.912010192871094,-29.77065277099609,42.11482620239258,49.1443977355957,15.85123348236084,1046912.81511525,0.023345947265625,-0.0893402099609375,-1.012908935546875,1046912.78398525,-0.08135157823562622,0.02887106314301491,0.01888607256114483,1046912.80468225,-3.16455078125,32.70223999023438,-100.8137664794922,1046912.80390925,-1.599921083017691,0.02785040368290486,0.1019220325042327,-0.08686836063861847,-0.008314716629683971,0.01299873180687428,-0.004539340734481812,0.01113897562026978,-0.01845377683639526,2,-0.04546317087732919,0.026847159419008,0.7158336817382349,-0.6962719301161429,0.02770229056477547,-0.1017456650733948,-0.9944246411323547,-14.6039867401123,-2.046039581298828,-29.65907287597656,-1,2,1046910.04204525,1,2,1617672707.575452,1617670944.349944,97,1.77341,0,0,65.01641,0,0,1617672684.62291,1046909.499073,0,-2.016083,98.16224,1617672708.293942,587422867,1685438189,0,0,1,1617672707.292254,1,0.14,1617672710.328892,-22.7814,-30.06344,0
1617672710.374075,93,0,0,0,0,0,0,0,0,0,1617672710.364143,-14.67740631103516,-1.678318023681641,-29.84975433349609,42.11506652832031,49.14463806152344,15.85120582580566,1046912.84873625,0.021881103515625,-0.0848846435546875,-1.001235961914062,1046912.81760525,-0.05837222933769226,-0.01560798846185207,0.003948935307562351,1046912.80468225,-3.16455078125,32.70223999023438,-100.8137664794922,1046912.80390925,-1.599921083017691,0.02785040368290486,0.1019220325042327,-0.08686836063861847,-0.008314716629683971,0.01299873180687428,-0.004539340734481812,0.01113897562026978,-0.01845377683639526,2,-0.04546317087732919,0.026847159419008,0.7158336817382349,-0.6962719301161429,0.02770229056477547,-0.1017456650733948,-0.9944246411323547,-14.6039867401123,-2.046039581298828,-29.65907287597656,-1,2,1046910.04204525,1,2,1617672707.575452,1617670944.349944,97,1.77341,0,0,65.01641,0,0,1617672684.62291,1046909.499073,0,-2.016083,98.16224,1617672708.293942,587422867,1685438189,0,0,1,1617672707.292254,1,0.14,1617672710.362677,-23.33868,-30.24693,0
1617672710.410857,94,0,0,0,0,0,0,0,0,0,1617672710.40404,-14.65202331542969,-1.650215148925781,-29.67784118652344,42.15441513061523,49.18398666381836,15.851149559021,1046912.88235625,0.028289794921875,-0.0941162109375,-1.006256103515625,1046912.85122625,-0.02396152541041374,0.009974869899451733,-0.01763278990983963,1046912.86466525,-3.175369262695312,32.8880615234375,-100.6395416259766,1046912.86367925,-1.600136386197907,0.02672356725310898,0.09944952273128806,-0.02153012715280056,0.001136454287916422,-0.02102166600525379,-0.0002210643142461777,0.005566202104091644,-0.01428371667861938,2,-0.04419743638822859,0.02635803328332505,0.7159902490642913,-0.6962110223077929,0.02658835984766483,-0.09928567707538605,-0.9947037100791931,-14.61597442626953,-1.798160552978516,-29.52629089355469,-1,2,1046910.04204525,1,2,1617672707.575452,1617670944.349944,97,1.77341,0,0,65.01641,0,0,1617672684.62291,1046910.447,0,-2.031952,98.16242,1617672708.293942,587422867,1685438189,0,0,1,1617672707.292254,1,0.14,1617672710.395539,-23.89596,-30.77555,0
1617672710.444042,95,0,0,0,0,0,0,0,0,0,1617672710.424116,-14.73239707946777,-1.667922973632812,-29.83763122558594,42.18099594116211,49.21056747436523,15.85112285614014,1046912.91597825,0.0335693359375,-0.0993194580078125,-1.022354125976562,1046912.88484825,0.01085983775556087,0.01324203610420227,-0.02424968034029007,1046912.86466525,-3.175369262695312,32.8880615234375,-100.6395416259766,1046912.86367925,-1.600136386197907,0.02672356725310898,0.09944952273128806,-0.02153012715280056,0.001136454287916422,-0.02102166600525379,-0.0002210643142461777,0.005566202104091644,-0.01428371667861938,2,-0.04419743638822859,0.02635803328332505,0.7159902490642913,-0.6962110223077929,0.02658835984766483,-0.09928567707538605,-0.9947037100791931,-14.61597442626953,-1.798160552978516,-29.52629089355469,-1,2,1046910.04204525,1,2,1617672707.575452,1617670944.349944,97,1.77341,0,0,65.01641,0,0,1617672684.62291,1046910.447,0,-2.031952,98.16242,1617672708.293942,587422867,1685438189,0,0,1,1617672707.292254,1,0.14,1617672710.428733,-25.01052,-31.7606,0
1617672710.481975,96,0,0,0,0,0,0,0,0,0,1617672710.463922,-14.75052738189697,-1.921131134033203,-29.72769927978516,42.25886154174805,49.28843307495117,15.85107803344727,1046912.94959925,0.0265350341796875,-0.117431640625,-0.9926910400390625,1046912.91846825,-0.01455577276647091,-0.07406730204820633,-0.04123718664050102,1046912.92465125,-3.287765502929688,32.77859497070312,-100.7488708496094,1046912.92345025,-1.601701832581586,0.02539063249856065,0.09808066853066218,-0.03538334369659424,-0.08242455124855042,-0.0389782153069973,0.002489956095814705,-0.01142098009586334,-0.008773684501647949,2,-0.04322373340645173,0.02636519220399446,0.7165945503498569,-0.6956500547734624,0.02526588924229145,-0.09792348742485046,-0.9948731660842896,-14.70786285400391,-1.896984100341797,-29.60475921630859,-1,2,1046910.04204525,1,2,1617672707.575452,1617670944.349944,97,1.77341,0,0,65.01641,0,0,1617672684.62291,1046910.447,0,-2.031952,98.16242,1617672708.293942,587422867,1685438189,0,0,1,1617672707.292254,1,0.14,1617672710.481948,-25.46976,-28.48672,0
1617672710.513133,97,0,0,0,0,0,0,0,0,0,1617672710.503644,-14.7237548828125,-1.818325042724609,-29.46298217773438,42.28914642333984,49.31871795654297,15.85103225708008,1046912.98322125,0.0315399169921875,-0.123260498046875,-0.9819488525390625,1046912.95208925,-0.02897945418953896,-0.04257222637534142,-0.02229678258299828,1046912.98463525,-3.384475708007812,32.91326904296875,-100.6273956298828,1046912.92345025,-1.601701832581586,0.02539063249856065,0.09808066853066218,-0.03538334369659424,-0.08242455124855042,-0.0389782153069973,0.002489956095814705,-0.01142098009586334,-0.008773684501647949,2,-0.04322373340645173,0.02636519220399446,0.7165945503498569,-0.6956500547734624,0.02526588924229145,-0.09792348742485046,-0.9948731660842896,-14.70786285400391,-1.896984100341797,-29.60475921630859,-1,2,1046910.04204525,1,2,1617672707.575452,1617670944.349944,97,1.77341,0,0,65.01641,0,0,1617672684.62291,1046910.447,0,-2.031952,98.16242,1617672708.293942,587422867,1685438189,0,0,1,1617672707.292254,1,0.14,1617672710.495646,-24.23975,-28.88526,0
1617672710.543292,98,0,0,0,0,0,0,0,0,0,1617672710.523639,-14.77488040924072,-1.802108764648438,-29.5390625,42.26422119140625,49.29379272460938,15.85100841522217,1046913.01684125,0.034576416015625,-0.1114959716796875,-0.9987030029296875,1046913.01933125,0.0190458633005619,0.04319008067250252,0.03955886140465736,1046912.98463525,-3.384475708007812,32.91326904296875,-100.6273956298828,1046912.98322125,-1.602714520474696,0.02330411442730557,0.09596401316150963,0.001438903622329235,0.02442366443574429,0.01933326758444309,0.009810075163841248,-0.02365951985120773,0.007427334785461426,2,-0.04172742837199495,0.02635276546756951,0.7170368135293796,-0.69528589514205,0.02319479174911976,-0.09581679105758667,-0.9951286911964417,-14.79411888122559,-1.792716979980469,-29.46312713623047,-1,2,1046910.04204525,1,2,1617672707.575452,1617670944.349944,97,1.77341,0,0,65.01641,0,0,1617672684.62291,1046910.447,0,-2.031952,98.16242,1617672708.293942,587422867,1685438189,0,0,1,1617672707.292254,1,0.14,1617672710.539912,-23.37017,-29.54321,0
1617672710.573257,99,0,0,0,0,0,0,0,0,0,1617672710.563481,-14.7382698059082,-1.751869201660156,-29.47068023681641,42.17626190185547,49.20583343505859,15.85095691680908,1046913.05046225,0.0321044921875,-0.1067962646484375,-1.015655517578125,1046913.01933125,0.0190458633005619,0.04319008067250252,0.03955886140465736,1046913.04462625,-3.214920043945312,32.86827087402344,-100.6476898193359,1046912.98322125,-1.602714520474696,0.02330411442730557,0.09596401316150963,0.001438903622329235,0.02442366443574429,0.01933326758444309,0.009810075163841248,-0.02365951985120773,0.007427334785461426,2,-0.04172742837199495,0.02635276546756951,0.7170368135293796,-0.69528589514205,0.02319479174911976,-0.09581679105758667,-0.9951286911964417,-14.79411888122559,-1.792716979980469,-29.46312713623047,-1,2,1046910.04204525,1,2,1617672707.575452,1617670944.349944,97,1.77341,0,0,65.01641,0,0,1617672684.62291,1046910.447,0,-2.031952,98.16242,1617672708.293942,587422867,1685438189,0,0,1,1617672707.292254,1,0.14,1617672710.562405,-23.37017,-29.92841,0
1617672710.612872,100,0,0,0,0,0,0,0,0,0,1617672710.603186,-14.75239753723145,-1.747386932373047,-29.64197540283203,42.0557746887207,49.08534622192383,15.85090255737305,1046913.08408425,0.026763916015625,-0.098968505859375,-1.015518188476562,1046913.05295425,-0.01141404174268246,-0.0001805623178370297,0.05045278742909431,1046913.04462625,-3.214920043945312,32.86827087402344,-100.6476898193359,1046913.04299225,-1.600560776879981,0.02516673112242664,0.09722327399202729,-0.01607146114110947,0.00627375952899456,0.05234408006072044,0.006815223023295403,-0.009741336107254028,-0.02058631181716919,2,-0.04286056756433936,0.02611104623727869,0.7162211473648221,-0.6960665453859172,0.0250452384352684,-0.09707017987966537,-0.9949623942375183,-14.67695140838623,-1.805995941162109,-29.47983551025391,-1,2,1046910.04204525,1,2,1617672707.575452,1617670944.349944,97,1.77341,0,0,65.01641,0,0,1617672684.62291,1046910.447,0,-2.031952,98.16242,1617672708.293942,587422867,1685438189,0,0,1,1617672707.292254,1,0.14,1617672710.601905,-23.37017,-30.40775,0
1617672710.643499,101,0,0,0,0,0,0,0,0,0,1617672710.623683,-14.67955684661865,-1.827468872070312,-29.33837127685547,41.99642562866211,49.02599716186523,15.85087299346924,1046913.11770425,0.021026611328125,-0.09503173828125,-1.006240844726562,1046913.08657425,0.005190234631299973,-0.01665381155908108,0.04994039610028267,1046913.10461125,-3.199996948242188,32.69566345214844,-100.1092376708984,1046913.10276325,-1.597441546939088,0.02459197121349907,0.09769539584156807,0.01138498727232218,-0.03170958906412125,0.04843137040734291,-0.002804649993777275,0.00232522189617157,-0.0155368447303772,2,-0.04286009603768803,0.0264135466162121,0.7151367176623303,-0.6971690953721498,0.02447224035859108,-0.09754006564617157,-0.9949306845664978,-14.64956474304199,-1.950992584228516,-29.05697631835938,-1,2,1046910.04204525,1,2,1617672707.575452,1617670944.349944,97,1.77341,0,0,65.01641,0,0,1617672684.62291,1046910.447,0,-2.031952,98.16242,1617672708.293942,587422867,1685438189,0,0,1,1617672707.292254,1,0.14,1617672710.628882,-23.37017,-29.59288,0
1617672710.672692,102,0,0,0,0,0,0,0,0,0,1617672710.663176,-14.81596565246582,-1.777084350585938,-29.67575073242188,41.8868522644043,48.91642379760742,15.85081481933594,1046913.15132525,0.016815185546875,-0.0893096923828125,-1.015945434570312,1046913.12019425,0.0428750291466713,-0.009382848627865314,0.04639892280101776,1046913.10461125,-3.199996948242188,32.69566345214844,-100.1092376708984,1046913.10276325,-1.597441546939088,0.02459197121349907,0.09769539584156807,0.01138498727232218,-0.03170958906412125,0.04843137040734291,-0.002804649993777275,0.00232522189617157,-0.0155368447303772,2,-0.04286009603768803,0.0264135466162121,0.7151367176623303,-0.6971690953721498,0.02447224035859108,-0.09754006564617157,-0.9949306845664978,-14.64956474304199,-1.950992584228516,-29.05697631835938,-1,2,1046910.04204525,1,2,1617672707.575452,1617670944.349944,97,1.77341,0,0,65.01641,0,0,1617672684.62291,1046910.447,0,-2.031952,98.16242,1617672708.293942,587422867,1685438189,0,0,1,1617672707.292254,1,0.14,1617672710.661271,-23.37017,-29.82678,0
1617672710.72193,103,0,0,0,0,0,0,0,0,0,1617672710.703167,-14.7361011505127,-1.868682861328125,-29.51191711425781,41.83524703979492,48.86481857299805,15.85076904296875,1046913.18494725,0.008941650390625,-0.0912628173828125,-0.9849853515625,1046913.15381725,0.05190607532858849,-0.03009957820177078,0.02887079678475857,1046913.16459425,-3.26251220703125,32.8443603515625,-100.5085144042969,1046913.16253325,-1.594971740337519,0.02352879388235842,0.09975052403059313,0.03889249265193939,-0.04221143200993538,0.01694926619529724,-0.01217909716069698,0.01280845701694489,-0.003369510173797607,2,-0.0432293839598545,0.0274664597298573,0.7142532256165298,-0.6980109762076095,0.02340967394411564,-0.09958518296480179,-0.9947535991668701,-14.71152210235596,-1.859588623046875,-29.34871673583984,-1,2,1046910.04204525,1,2,1617672707.575452,1617670944.349944,97,1.77341,0,0,65.01641,0,0,1617672684.62291,1046910.447,0,-2.031952,98.16242,1617672708.293942,587422867,1685438189,0,0,1,1617672707.292254,1,0.14,1617672710.695461,-23.37017,-30.52081,0
1617672710.742527,104,0,0,0,0,0,0,0,0,0,1617672710.722872,-14.76513004302979,-1.778816223144531,-29.6478271484375,41.844970703125,48.87454223632812,15.85073947906494,1046913.21856725,0.0081939697265625,-0.1098175048828125,-0.978302001953125,1046913.18743725,0.05452928692102432,0.007909854874014854,-0.01019165106117725,1046913.16459425,-3.26251220703125,32.8443603515625,-100.5085144042969,1046913.16253325,-1.594971740337519,0.02352879388235842,0.09975052403059313,0.03889249265193939,-0.04221143200993538,0.01694926619529724,-0.01217909716069698,0.01280845701694489,-0.003369510173797607,2,-0.0432293839598545,0.0274664597298573,0.7142532256165298,-0.6980109762076095,0.02340967394411564,-0.09958518296480179,-0.9947535991668701,-14.71152210235596,-1.859588623046875,-29.34871673583984,-1,2,1046910.04204525,1,2,1617672707.575452,1617670944.349944,97,1.77341,0,0,65.01641,0,0,1617672684.62291,1046910.447,0,-2.031952,98.16242,1617672708.293942,587422867,1685438189,0,0,1,1617672707.292254,1,0.14,1617672710.728528,-23.37017,-31.48724,0
1617672710.782057,105,0,0,0,0,0,0,0,0,0,1617672710.76277,-14.65798568725586,-1.857852935791016,-29.52863311767578,41.84889984130859,48.87847137451172,15.85068035125732,1046913.25218925,0.019989013671875,-0.0958404541015625,-1.016159057617188,1046913.22105725,0.07559116184711456,0.08178088068962097,0.001856755930930376,1046913.22457925,-3.187576293945312,32.84623718261719,-100.5448150634766,1046913.22230425,-1.595183373004871,0.02424068707573641,0.1020774638010378,0.06125237047672272,0.07583013921976089,0.00571913318708539,-0.009799288585782051,-0.003553196787834167,0.002833664417266846,2,-0.04429174015101872,0.02805465328390836,0.7142598203639861,-0.6979141192160108,0.02411214262247086,-0.1019002869725227,-0.9945023655891418,-14.64720153808594,-1.861278533935547,-29.36710357666016,-1,2,1046910.04204525,1,2,1617672707.575452,1617670944.349944,97,1.77341,0,0,65.01641,0,0,1617672684.62291,1046910.447,0,-2.031952,98.16242,1617672708.293942,587422867,1685438189,0,0,1,1617672707.292254,1,0.14,1617672710.781349,-23.37017,-31.56504,0
1617672710.81217,106,0,0,0,0,0,0,0,0,0,1617672710.802809,-14.62790012359619,-1.83349609375,-29.43798065185547,41.88479232788086,48.91436386108398,15.85062599182129,1046913.28581025,0.0178985595703125,-0.0992279052734375,-0.989349365234375,1046913.25467925,0.05849340185523033,-0.00606348505243659,-0.01519120298326015,1046913.28456125,-3.156967163085938,32.68553161621094,-100.4283294677734,1046913.22230425,-1.595183373004871,0.02424068707573641,0.1020774638010378,0.06125237047672272,0.07583013921976089,0.00571913318708539,-0.009799288585782051,-0.003553196787834167,0.002833664417266846,2,-0.04429174015101872,0.02805465328390836,0.7142598203639861,-0.6979141192160108,0.02411214262247086,-0.1019002869725227,-0.9945023655891418,-14.64720153808594,-1.861278533935547,-29.36710357666016,-1,2,1046910.04204525,1,2,1617672707.575452,1617670944.349944,97,1.77341,0,0,65.01641,0,0,1617672684.62291,1046910.447,0,-2.031952,98.16242,1617672708.293942,587422867,1685438189,0,0,1,1617672707.292254,1,0.14,1617672710.795541,-23.37017,-31.59379,0
1617672710.841932,107,0,0,0,0,0,0,0,0,0,1617672710.822736,-14.65091991424561,-1.929328918457031,-29.32621002197266,41.92486572265625,48.95443725585938,15.85060024261475,1046913.31943025,0.0186614990234375,-0.1045684814453125,-0.994384765625,1046913.28830025,-0.01022760383784771,-0.02004960738122463,-0.03894074261188507,1046913.28456125,-3.156967163085938,32.68553161621094,-100.4283294677734,1046913.28207525,-1.595904720023451,0.02403176174991496,0.1039917920993227,-0.002261277288198471,-0.02969902567565441,-0.03939787670969963,-0.00616881251335144,0.003279566764831543,0.007219493389129639,2,-0.04487388828562658,0.02882822598096567,0.714472809952135,-0.6976272351175373,0.02389963530004025,-0.1038044616580009,-0.9943105578422546,-14.60408020019531,-1.959957122802734,-29.3135986328125,-1,2,1046910.04204525,1,2,1617672707.575452,1617670944.349944,97,1.77341,0,0,65.01641,0,0,1617672684.62291,1046910.447,0,-2.031952,98.16242,1617672708.293942,587422867,1685438189,0,0,1,1617672707.292254,1,0.14,1617672710.839627,-23.37017,-28.24478,0
1617672710.890564,108,0,0,0,0,0,0,0,0,0,1617672710.882324,-14.7780065536499,-1.828289031982422,-29.36562347412109,42.01598358154297,49.04555511474609,15.85052299499512,1046913.35305225,0.0177459716796875,-0.0910491943359375,-0.979217529296875,1046913.32192225,-0.05205627530813217,-0.01815982908010483,-0.02522199973464012,1046913.34454425,-3.30731201171875,32.81065368652344,-100.4841461181641,1046913.34184625,-1.597565859710741,0.02251912244739984,0.1006014214790668,-0.0744541734457016,-0.007200986612588167,-0.03186876326799393,-0.005069278180599213,0.01000824570655823,0.01475697755813599,2,-0.04312890170114639,0.02817902506787006,0.7151611008523227,-0.6970584443805286,0.02240337058901787,-0.100431814789772,-0.9946916699409485,-14.73760032653809,-1.893791198730469,-29.30673217773438,-1,2,1046910.04204525,1,2,1617672707.575452,1617670944.349944,97,1.77341,0,0,65.01641,0,0,1617672684.62291,1046910.447,0,-2.031952,98.16242,1617672708.293942,587422867,1685438189,0,0,1,1617672707.292254,1,0.14,1617672710.862472,-23.37017,-28.24478,0
1617672710.911908,109,0,0,0,0,0,0,0,0,0,1617672710.902047,-14.8237771987915,-1.702186584472656,-29.44779205322266,42.04473876953125,49.07431030273438,15.85049915313721,1046913.38667325,0.0245361328125,-0.0901031494140625,-0.99688720703125,1046913.35554225,-0.05601426586508751,0.02616955153644085,-0.0326295830309391,1046913.34454425,-3.30731201171875,32.81065368652344,-100.4841461181641,1046913.34184625,-1.597565859710741,0.02251912244739984,0.1006014214790668,-0.0744541734457016,-0.007200986612588167,-0.03186876326799393,-0.005069278180599213,0.01000824570655823,0.01475697755813599,2,-0.04312890170114639,0.02817902506787006,0.7151611008523227,-0.6970584443805286,0.02240337058901787,-0.100431814789772,-0.9946916699409485,-14.73760032653809,-1.893791198730469,-29.30673217773438,-1,2,1046910.04204525,1,2,1617672707.575452,1617670944.349944,97,1.77341,0,0,65.01641,0,0,1617672684.62291,1046910.447,0,-2.031952,98.16242,1617672708.293942,587422867,1685438189,0,0,1,1617672707.292254,1,0.14,1617672710.901862,-23.37017,-28.73351,0
1617672710.95004,110,0,0,0,0,0,0,0,0,0,1617672710.941838,-14.744384765625,-1.742401123046875,-29.46955108642578,42.1248664855957,49.15443801879883,15.85045146942139,1046913.42029325,0.0207366943359375,-0.088623046875,-0.98138427734375,1046913.38916325,-0.004324440844357014,0.0171105433255434,-0.03185513615608215,1046913.40452325,-3.307540893554688,32.93284606933594,-100.34033203125,1046913.40161625,-1.599260514738612,0.02324958803181695,0.09838251159548739,-0.00606869999319315,0.04080163687467575,-0.03620319813489914,-0.001543780788779259,0.009875498712062836,0.01222938299179077,2,-0.04259463210845743,0.02716619262464198,0.7157842257813098,-0.6964916916260471,0.02313507720828056,-0.09822387993335724,-0.9948953986167908,-14.74787616729736,-1.763797760009766,-29.21482086181641,-1,2,1046910.04204525,1,2,1617672707.575452,1617670944.349944,97,1.77341,0,0,65.01641,0,0,1617672684.62291,1046910.447,0,-2.031952,98.16242,1617672708.293942,587422867,1685438189,0,0,1,1617672707.292254,1,0.14,1617672710.928738,-23.37017,-28.87427,0
1617672710.981906,111,0,0,0,0,0,0,0,0,0,1617672710.962218,-14.77487373352051,-1.786571502685547,-29.77780151367188,42.18378067016602,49.21335220336914,15.85042572021484,1046913.45391525,0.0272216796875,-0.1073150634765625,-0.98431396484375,1046913.42278525,0.01421009469777346,0.07627586275339127,-0.05956932157278061,1046913.40452325,-3.307540893554688,32.93284606933594,-100.34033203125,1046913.40161625,-1.599260514738612,0.02324958803181695,0.09838251159548739,-0.00606869999319315,0.04080163687467575,-0.03620319813489914,-0.001543780788779259,0.009875498712062836,0.01222938299179077,2,-0.04259463210845743,0.02716619262464198,0.7157842257813098,-0.6964916916260471,0.02313507720828056,-0.09822387993335724,-0.9948953986167908,-14.74787616729736,-1.763797760009766,-29.21482086181641,-1,2,1046910.04204525,1,2,1617672707.575452,1617670944.349944,97,1.77341,0,0,65.01641,0,0,1617672684.62291,1046910.447,0,-2.031952,98.16242,1617672708.293942,587422867,1685438189,0,0,1,1617672707.292254,1,0.14,1617672710.961635,-23.37017,-26.95958,0
1617672711.020378,112,0,0,0,0,0,0,0,0,0,1617672711.001888,-14.64351081848145,-1.795482635498047,-29.78105163574219,42.23855972290039,49.26813125610352,15.85037994384766,1046913.48753625,0.036285400390625,-0.1038818359375,-1.019744873046875,1046913.49002625,-0.04997368529438972,-0.005982258822768927,-0.00352948741056025,1046913.46450725,-3.205581665039062,32.88313293457031,-100.826416015625,1046913.46138725,-1.601712281485508,0.02831705970500575,0.09833885026972622,0.008365550078451633,0.1015641167759895,-0.01860782876610756,0.003363542258739471,-0.009928077459335327,-0.005840659141540527,2,-0.04436176389627611,0.0254401388700131,0.7165283510565605,-0.6956809404503164,0.02817648276686668,-0.09818042814731598,-0.9947696924209595,-14.63738346099854,-1.818023681640625,-29.64730072021484,-1,2,1046910.04204525,1,2,1617672707.575452,1617670944.349944,97,1.77341,0,0,65.01641,0,0,1617672684.62291,1046910.447,0,-2.031952,98.16242,1617672708.293942,587422867,1685438189,0,0,1,1617672707.292254,1,0.14,1617672710.995435,-23.37017,-27.59324,0
1617672711.051245,113,0,0,0,0,0,0,0,0,0,1617672711.041944,-14.50230312347412,-1.789028167724609,-29.6788330078125,42.23937606811523,49.26894760131836,15.85033512115479,1046913.52115825,0.033599853515625,-0.0961761474609375,-1.01910400390625,1046913.49002625,-0.04997368529438972,-0.005982258822768927,-0.00352948741056025,1046913.52449125,-3.131011962890625,32.89739990234375,-100.7976379394531,1046913.46138725,-1.601712281485508,0.02831705970500575,0.09833885026972622,0.008365550078451633,0.1015641167759895,-0.01860782876610756,0.003363542258739471,-0.009928077459335327,-0.005840659141540527,2,-0.04436176389627611,0.0254401388700131,0.7165283510565605,-0.6956809404503164,0.02817648276686668,-0.09818042814731598,-0.9947696924209595,-14.63738346099854,-1.818023681640625,-29.64730072021484,-1,2,1046910.04204525,1,2,1617672707.575452,1617670944.349944,97,1.77341,0,0,65.01641,0,0,1617672684.62291,1046910.447,0,-2.031952,98.16242,1617672708.293942,587422867,1685438189,0,0,1,1617672707.292254,1,0.14,1617672711.028621,-23.37017,-28.78139,0
1617672711.084308,114,0,0,0,0,0,0,0,0,0,1617672711.081488,-14.6220588684082,-1.730522155761719,-29.77904510498047,42.22848129272461,49.25805282592773,15.85029125213623,1046913.55477825,0.0249786376953125,-0.0875244140625,-1.013412475585938,1046913.52364825,-0.1373139172792435,-0.0907922238111496,-0.003187271067872643,1046913.52449125,-3.131011962890625,32.89739990234375,-100.7976379394531,1046913.52115825,-1.601901192728481,0.02762005296202623,0.09410087335903979,-0.1497208625078201,-0.0924382358789444,-0.001651963917538524,0.004549205303192139,0.00149381160736084,-0.02287030220031738,2,-0.04263761201608901,0.02416620353112534,0.7167029817187571,-0.6956543175128646,0.02749435976147652,-0.09396205842494965,-0.9951960444450378,-14.54976558685303,-1.795734405517578,-29.64634704589844,-1,2,1046910.04204525,1,2,1617672707.575452,1617670944.349944,97,1.77341,0,0,65.01641,0,0,1617672684.62291,1046910.447,0,-2.031952,98.16242,1617672708.293942,587422867,1685438189,0,0,1,1617672707.292254,1,0.14,1617672711.084263,-23.37017,-27.13153,0
