loggingTime,loggingSample,locationTimestamp_since1970,locationLatitude,locationLongitude,locationAltitude,locationSpeed,locationCourse,locationVerticalAccuracy,locationHorizontalAccuracy,locationFloor,locationHeadingTimestamp_since1970,locationHeadingX,locationHeadingY,locationHeadingZ,locationTrueHeading,locationMagneticHeading,locationHeadingAccuracy,accelerometerTimestamp_sinceReboot,accelerometerAccelerationX,accelerometerAccelerationY,accelerometerAccelerationZ,gyroTimestamp_sinceReboot,gyroRotationX,gyroRotationY,gyroRotationZ,magnetometerTimestamp_sinceReboot,magnetometerX,magnetometerY,magnetometerZ,motionTimestamp_sinceReboot,motionYaw,motionRoll,motionPitch,motionRotationRateX,motionRotationRateY,motionRotationRateZ,motionUserAccelerationX,motionUserAccelerationY,motionUserAccelerationZ,motionAttitudeReferenceFrame,motionQuaternionX,motionQuaternionY,motionQuaternionZ,motionQuaternionW,motionGravityX,motionGravityY,motionGravityZ,motionMagneticFieldX,motionMagneticFieldY,motionMagneticFieldZ,motionHeading,motionMagneticFieldCalibrationAccuracy,activityTimestamp_sinceReboot,activity,activityActivityConfidence,activityActivityStartDate,pedometerStartDate,pedometerNumberofSteps,pedometerAverageActivePace,pedometerCurrentPace,pedometerCurrentCadence,pedometerDistance,pedometerFloorAscended,pedometerFloorDescended,pedometerEndDate,altimeterTimestamp_sinceReboot,altimeterReset,altimeterRelativeAltitude,altimeterPressure,IP_Timestamp_since1970,IP_en0,IP_pdp_ip0,deviceID,deviceOrientationTimeStamp_since1970,deviceOrientation,batteryTimeStamp_since1970,batteryState,batteryLevel,avAudioRecorder_Timestamp_since1970,avAudioRecorderPeakPower,avAudioRecorderAveragePower,label
1617982136.037072,1,0,0,0,0,0,0,0,0,0,1617982136.035765,15.68222808837891,1.626308441162109,-40.49431991577148,280.0102233886719,287.0313110351562,13.6228084564209,26389.138372625,0.010894775390625,-0.130279541015625,-1.012725830078125,26389.133392625,-0.1427922993898392,-0.1350803226232529,0.02616475895047188,26389.109609625,92.11723327636719,19.04277038574219,-27.75933837890625,26389.114714625,0.7055047943151969,-0.007692038520078295,0.1504384375753839,-0.3413302898406982,-0.1291280835866928,0.02612464688718319,0.02593080699443817,-0.0312654972076416,-0.03756886720657349,2,0.07184551913664039,0.02236320114114438,0.3442313280209619,0.9358649311148046,-0.007605085615068674,-0.1498716324567795,-0.9886761903762817,16.03619384765625,1.158685684204102,-40.40453720092773,-1,2,26388.846207625,4,2,1617982135.761883,0,0,0,0,0,0,0,0,0,26385.907109,0,-0.2457581,97.3009,0,0,0,0,0,1,1617982136.009866,1,0.78,1617982136.037014,-25.70204,-44.79414,0
1617982136.045459,2,0,0,0,0,0,0,0,0,0,1617982136.035765,15.68222808837891,1.626308441162109,-40.49431991577148,280.0102233886719,287.0313110351562,13.6228084564209,26389.171993625,-0.0087738037109375,-0.1215972900390625,-1.034271240234375,26389.167012625,0.04242175817489624,-0.09397869557142258,-0.05801563337445259,26389.169603625,91.73992919921875,19.50735473632812,-27.78811645507812,26389.114714625,0.7055047943151969,-0.007692038520078295,0.1504384375753839,-0.3413302898406982,-0.1291280835866928,0.02612464688718319,0.02593080699443817,-0.0312654972076416,-0.03756886720657349,2,0.07184551913664039,0.02236320114114438,0.3442313280209619,0.9358649311148046,-0.007605085615068674,-0.1498716324567795,-0.9886761903762817,16.03619384765625,1.158685684204102,-40.40453720092773,-1,2,26388.846207625,4,2,1617982135.761883,0,0,0,0,0,0,0,0,0,26385.907109,0,-0.2457581,97.3009,0,0,0,0,0,1,1617982136.009866,1,0.78,1617982136.037014,-25.70204,-44.79414,0
1617982136.075397,3,0,0,0,0,0,0,0,0,0,1617982136.056017,15.70198822021484,1.568782806396484,-40.34439468383789,280.08447265625,287.1055603027344,13.62284278869629,26389.205613625,0.006805419921875,-0.16754150390625,-1.039230346679688,26389.200633625,-0.1667871177196503,-0.3913075625896454,-0.05203843489289284,26389.169603625,91.73992919921875,19.50735473632812,-27.78811645507812,26389.174483625,0.7048944673535084,-0.01311483439304236,0.1462779889651055,0.0001415163278579712,-0.1490105837583542,-0.0628482773900032,0.007359080947935581,0.01801028847694397,-0.04961347579956055,2,0.07083806131742139,0.01908637534871112,0.3438156511524129,0.9361669235041843,-0.01297440193593502,-0.1457568854093552,-0.9892353415489197,15.65007781982422,1.616971969604492,-40.41562652587891,-1,2,26388.846207625,4,2,1617982135.761883,0,0,0,0,0,0,0,0,0,26385.907109,0,-0.2457581,97.3009,0,0,0,0,0,1,1617982136.009866,1,0.78,1617982136.046159,-25.70204,-44.79414,0
1617982136.105523,4,0,0,0,0,0,0,0,0,0,1617982136.095735,15.33444213867188,1.502632141113281,-40.61559295654297,280.1875610351562,287.2086486816406,13.62291622161865,26389.239232625,-0.0423431396484375,-0.119049072265625,-0.9207000732421875,26389.234252625,-0.131578266620636,-0.161577969789505,-0.02087918296456337,26389.229593625,91.28279113769531,19.56346130371094,-28.10554504394531,26389.174483625,0.7048944673535084,-0.01311483439304236,0.1462779889651055,0.0001415163278579712,-0.1490105837583542,-0.0628482773900032,0.007359080947935581,0.01801028847694397,-0.04961347579956055,2,0.07083806131742139,0.01908637534871112,0.3438156511524129,0.9361669235041843,-0.01297440193593502,-0.1457568854093552,-0.9892353415489197,15.65007781982422,1.616971969604492,-40.41562652587891,-1,2,26388.846207625,4,2,1617982135.761883,0,0,0,0,0,0,0,0,0,26385.907109,0,-0.2457581,97.3009,0,0,0,0,0,1,1617982136.009866,1,0.78,1617982136.079581,-25.70204,-45.80992,0
1617982136.145022,5,0,0,0,0,0,0,0,0,0,1617982136.135569,14.80348968505859,1.88482666015625,-41.00564956665039,280.2875671386719,287.3086547851562,13.62297821044922,26389.272853625,-0.027740478515625,-0.1349639892578125,-0.938873291015625,26389.267871625,0.08642676472663879,0.06330280750989914,-0.05052735656499863,26389.229593625,91.28279113769531,19.56346130371094,-28.10554504394531,26389.234252625,0.7022884080701401,-0.02967422858742258,0.1369299174063254,-0.1431010663509369,-0.1671328991651535,-0.01847723312675953,-0.0129510723054409,0.01745331287384033,0.0695035457611084,2,0.06932133608285074,0.009630467561899083,0.3421757018304803,0.9370260315807584,-0.02939215674996376,-0.1365024149417877,-0.9902036190032959,15.22406005859375,1.621910095214844,-40.67723083496094,-1,2,26388.846207625,4,2,1617982135.761883,0,0,0,0,0,0,0,0,0,26386.853398,0,-0.3170776,97.30171,0,0,0,0,0,1,1617982136.009866,1,0.78,1617982136.11293,-25.70204,-46.55639,0
1617982136.175491,6,0,0,0,0,0,0,0,0,0,1617982136.155644,14.75267028808594,1.843265533447266,-40.99147796630859,280.3312377929688,287.3523254394531,13.62300586700439,26389.306472625,-0.013580322265625,-0.1544342041015625,-1.010101318359375,26389.301492625,-0.06932021677494049,-0.1048166900873184,-0.03287379443645477,26389.289584625,90.88375854492188,19.67607116699219,-28.42338562011719,26389.294021625,0.6996595312621734,-0.02795682841533436,0.13807048605097,-0.01991305500268936,-0.04806169122457504,-0.02976788021624088,0.007957467809319496,-0.01797695457935333,-0.01957768201828003,2,0.06957538019921139,0.01053984013438448,0.3409822665662994,0.9374323428877345,-0.02768716774880886,-0.1376322209835052,-0.9900963306427002,14.77301788330078,1.799417495727539,-41.01158905029297,-1,2,26388.846207625,4,2,1617982135.761883,0,0,0,0,0,0,0,0,0,26386.853398,0,-0.3170776,97.30171,0,0,0,0,0,1,1617982136.009866,1,0.78,1617982136.14597,-25.70204,-46.77521,0
1617982136.214928,7,0,0,0,0,0,0,0,0,0,1617982136.195456,14.65665435791016,1.946842193603516,-41.04845428466797,280.4022521972656,287.42333984375,13.62306118011475,26389.34009375,-0.0279388427734375,-0.1425933837890625,-1.000534057617188,26389.33511275,-0.2266752272844315,-0.2672578096389771,-0.01613422855734825,26389.289584625,90.88375854492188,19.67607116699219,-28.42338562011719,26389.294021625,0.6996595312621734,-0.02795682841533436,0.13807048605097,-0.01991305500268936,-0.04806169122457504,-0.02976788021624088,0.007957467809319496,-0.01797695457935333,-0.01957768201828003,2,0.06957538019921139,0.01053984013438448,0.3409822665662994,0.9374323428877345,-0.02768716774880886,-0.1376322209835052,-0.9900963306427002,14.77301788330078,1.799417495727539,-41.01158905029297,-1,2,26388.846207625,4,2,1617982135.761883,0,0,0,0,0,0,0,0,0,26386.853398,0,-0.3170776,97.30171,0,0,0,0,0,1,1617982136.009866,1,0.78,1617982136.21303,-25.70204,-41.80648,0
1617982136.24909,8,0,0,0,0,0,0,0,0,0,1617982136.234992,14.35914611816406,2.247774124145508,-40.97622680664062,280.4746398925781,287.4957275390625,13.62311744689941,26389.37371275,-0.0626373291015625,-0.1309661865234375,-0.9810791015625,26389.36873175,-0.1605204343795776,-0.1406101137399673,-0.00609437795355916,26389.34957475,90.51528930664062,20.11936950683594,-28.43650817871094,26389.35379075,0.6977907225077388,-0.04033790921212517,0.1266160171450434,-0.28730309009552,-0.2039655596017838,-0.0246504619717598,-0.0003249198198318481,0.001338988542556763,-0.007652401924133301,2,0.06632260648622711,0.002709073096075355,0.3399066303116819,0.9381138733237041,-0.04000414907932281,-0.1262779831886292,-0.9911879301071167,14.44548034667969,2.203582763671875,-41.06364059448242,-1,2,26388.846207625,4,2,1617982135.761883,0,0,0,0,0,0,0,0,0,26386.853398,0,-0.3170776,97.30171,0,0,0,0,0,1,1617982136.009866,1,0.78,1617982136.21303,-25.70204,-41.80648,0
1617982136.274984,9,0,0,0,0,0,0,0,0,0,1617982136.255055,14.10087585449219,2.51609992980957,-41.09473037719727,280.4687194824219,287.4898071289062,13.62314605712891,26389.40733275,-0.056854248046875,-0.1193084716796875,-1.001846313476562,26389.40235275,0.06665173172950745,0.01831349357962608,0.04703222215175629,26389.34957475,90.51528930664062,20.11936950683594,-28.43650817871094,26389.35379075,0.6977907225077388,-0.04033790921212517,0.1266160171450434,-0.28730309009552,-0.2039655596017838,-0.0246504619717598,-0.0003249198198318481,0.001338988542556763,-0.007652401924133301,2,0.06632260648622711,0.002709073096075355,0.3399066303116819,0.9381138733237041,-0.04000414907932281,-0.1262779831886292,-0.9911879301071167,14.44548034667969,2.203582763671875,-41.06364059448242,-1,2,26388.846207625,4,2,1617982135.761883,0,0,0,0,0,0,0,0,0,26386.853398,0,-0.3170776,97.30171,0,0,0,0,0,1,1617982136.009866,1,0.78,1617982136.260092,-26.8166,-42.97729,0
1617982136.319386,10,0,0,0,0,0,0,0,0,0,1617982136.314787,13.90565490722656,2.66364860534668,-41.17704772949219,280.3958129882812,287.4169006347656,13.62322998046875,26389.44095375,-0.0688934326171875,-0.1036529541015625,-1.010330200195312,26389.43597175,0.02833763137459755,0.01605140417814255,-0.01823573000729084,26389.40956175,90.08273315429688,20.65618896484375,-28.50299072265625,26389.41355875,0.698848105118771,-0.04276806868742678,0.1242107749467267,0.04360799491405487,0.02384108304977417,0.02807789854705334,-0.02662046998739243,0.01582885533571243,-0.007146716117858887,2,0.06560781582372595,0.00119213455502053,0.340371627351893,0.9379986841426357,-0.04242563620209694,-0.1238916292786598,-0.9913883805274963,13.98393249511719,2.750555038452148,-41.1273307800293,-1,2,26388.846207625,4,2,1617982135.761883,0,0,0,0,0,0,0,0,0,26386.853398,0,-0.3170776,97.30171,0,0,0,0,0,1,1617982136.009866,1,0.78,1617982136.319341,-28.48843,-43.30645,0
1617982136.344649,11,0,0,0,0,0,0,0,0,0,1617982136.334882,13.9605712890625,2.738643646240234,-41.12073135375977,280.4275817871094,287.4486694335938,13.62325859069824,26389.47457275,-0.0724334716796875,-0.1063690185546875,-0.9937286376953125,26389.46959275,0.04885062947869301,0.04060281813144684,-0.0463150329887867,26389.46955575,90.00480651855469,20.77104187011719,-28.42764282226562,26389.41355875,0.698848105118771,-0.04276806868742678,0.1242107749467267,0.04360799491405487,0.02384108304977417,0.02807789854705334,-0.02662046998739243,0.01582885533571243,-0.007146716117858887,2,0.06560781582372595,0.00119213455502053,0.340371627351893,0.9379986841426357,-0.04242563620209694,-0.1238916292786598,-0.9913883805274963,13.98393249511719,2.750555038452148,-41.1273307800293,-1,2,26388.846207625,4,2,1617982135.761883,0,0,0,0,0,0,0,0,0,26386.853398,0,-0.3170776,97.30171,0,0,0,0,0,1,1617982136.009866,1,0.78,1617982136.319341,-28.48843,-43.30645,0
1617982136.380301,12,0,0,0,0,0,0,0,0,0,1617982136.374551,13.99717712402344,2.891494750976562,-41.13079833984375,280.5293273925781,287.5504150390625,13.62331390380859,26389.50819275,-0.041900634765625,-0.1436614990234375,-1.008377075195312,26389.50321275,-0.01433499716222286,0.01749750040471554,-0.03900971636176109,26389.46955575,90.00480651855469,20.77104187011719,-28.42764282226562,26389.47332775,0.6978311480501856,-0.04175508894312498,0.1260186114317801,0.03572677820920944,0.04239200055599213,-0.0489434041082859,-0.02867176756262779,0.01782092452049255,0.001260995864868164,2,0.06628345123708673,0.001943413978483861,0.3398907930589056,0.938124321076317,-0.04141194000840187,-0.1256853342056274,-0.9912054538726807,13.91878509521484,2.837581634521484,-41.05142211914062,-1,2,26388.846207625,4,2,1617982135.761883,0,0,0,0,0,0,0,0,0,26386.853398,0,-0.3170776,97.30171,0,0,0,0,0,1,1617982136.009866,1,0.78,1617982136.380275,-30.16027,-44.78724,0
1617982136.414091,13,0,0,0,0,0,0,0,0,0,1617982136.394664,13.93251037597656,2.849893569946289,-41.29050827026367,280.4932250976562,287.5143127441406,13.62334060668945,26389.54181275,-0.0369873046875,-0.2236480712890625,-0.88006591796875,26389.53683175,0.7053129076957703,0.4903531968593597,0.1366838067770004,26389.52953875,90.08747863769531,20.63404846191406,-28.52017211914062,26389.53309675,0.69827974314727,-0.03729880649722719,0.1355834546932339,0.6511598229408264,0.4419301152229309,0.122454859316349,0.003454804420471191,-0.08741156756877899,0.1247007846832275,2,0.07000655979895144,0.00568609088284781,0.3400575361298591,0.937778105106217,-0.03694793209433556,-0.1351684331893921,-0.99013352394104,13.96994018554688,2.771240234375,-41.16593551635742,-1,2,26388.846207625,4,2,1617982135.761883,0,0,0,0,0,0,0,0,0,26386.853398,0,-0.3170776,97.30171,0,0,0,0,0,1,1617982136.009866,1,0.78,1617982136.413056,-30.71755,-44.97558,0
1617982136.443898,14,0,0,0,0,0,0,0,0,0,1617982136.434534,14.30266571044922,2.301836013793945,-41.14060211181641,280.1740112304688,287.1950988769531,13.62341594696045,26389.57543275,-0.003814697265625,-0.104461669921875,-1.07257080078125,26389.57045275,0.3953473269939423,0.1601862162351608,-0.03262851759791374,26389.52953875,90.08747863769531,20.63404846191406,-28.52017211914062,26389.53309675,0.69827974314727,-0.03729880649722719,0.1355834546932339,0.6511598229408264,0.4419301152229309,0.122454859316349,0.003454804420471191,-0.08741156756877899,0.1247007846832275,2,0.07000655979895144,0.00568609088284781,0.3400575361298591,0.937778105106217,-0.03694793209433556,-0.1351684331893921,-0.99013352394104,13.96994018554688,2.771240234375,-41.16593551635742,-1,2,26388.846207625,4,2,1617982135.761883,0,0,0,0,0,0,0,0,0,26386.853398,0,-0.3170776,97.30171,0,0,0,0,0,1,1617982136.009866,1,0.78,1617982136.413056,-30.71755,-44.97558,0
1617982136.48989,15,0,0,0,0,0,0,0,0,0,1617982136.47411,15.02398681640625,1.197589874267578,-40.83642578125,280.2806701660156,287.3017578125,13.62352275848389,26389.60905375,-0.048095703125,-0.178741455078125,-1.011398315429688,26389.60407175,-0.1220510751008987,-0.02137559652328491,-0.0290385764092207,26389.58951775,91.086181640625,19.12159729003906,-28.17030334472656,26389.59286575,0.7013555009036665,-0.02084729397658818,0.1619907664757879,-0.01050891261547804,-0.01095805689692497,-0.07039115577936172,-0.009075039997696877,0.02802819013595581,-0.03822386264801025,2,0.0795478135545491,0.0180357742559148,0.3415975377129842,0.9363002563204962,-0.02057287469506264,-0.1612832248210907,-0.9866937398910522,14.89873504638672,1.36016845703125,-40.84367752075195,-1,2,26388.846207625,4,2,1617982135.761883,0,0,0,0,0,0,0,0,0,26386.853398,0,-0.3170776,97.30171,0,0,0,0,0,1,1617982136.009866,1,0.78,1617982136.479818,-28.13221,-42.87477,0
1617982136.538546,16,0,0,0,0,0,0,0,0,0,1617982136.528548,15.14383697509766,1.105424880981445,-40.42650604248047,280.103759765625,287.1248474121094,13.62368202209473,26389.66882175,0.020660400390625,-0.1395111083984375,-1.042327880859375,26389.63893675,0.06899717450141907,0.0201388243585825,0.08259900659322739,26389.64950175,91.22573852539062,19.08322143554688,-27.92591857910156,26389.65263375,0.703402869055238,-0.02180129661219624,0.1591957162749608,0.2119557112455368,-0.004162916913628578,0.04571126773953438,-0.002844452857971191,0.01872308552265167,-0.02345383167266846,2,0.07838544387111575,0.01718973482029771,0.3425707213111441,0.9360586441397454,-0.02152391709387302,-0.1585241407155991,-0.9871204495429993,15.124755859375,1.178598403930664,-40.60595321655273,-1,2,26388.846207625,4,2,1617982135.761883,0,0,0,0,0,0,0,0,0,26386.853398,0,-0.3170776,97.30171,0,0,0,0,0,1,1617982136.009866,1,0.78,1617982136.513032,-28.13221,-43.73956,0
1617982136.598277,17,0,0,0,0,0,0,0,0,0,1617982136.588426,15.07902526855469,0.6409568786621094,-39.64511108398438,280.2687072753906,287.289794921875,13.62383651733398,26389.72858975,-0.093170166015625,-0.1298370361328125,-0.93988037109375,26389.70866775,-0.2873800992965698,-0.2510277032852173,-0.09345138818025589,26389.70948475,91.23039245605469,18.47909545898438,-26.93806457519531,26389.71240275,0.7023123239871728,-0.03104756289253268,0.1616291201790596,-0.3243644535541534,-0.2371855080127716,-0.1060356497764587,-0.01164421252906322,-0.05132348835468292,-0.03857940435409546,2,0.08111347789529522,0.01323699110650043,0.3416429861785781,0.9362294650369518,-0.03063797950744629,-0.1609263122081757,-0.986490786075592,15.15695953369141,0.6025009155273438,-39.59744262695312,-1,2,26388.846207625,4,2,1617982135.761883,0,0,0,0,0,0,0,0,0,26386.853398,0,-0.3170776,97.30171,0,0,0,0,1617982136.594888,1,1617982136.009866,1,0.78,1617982136.578716,-28.13221,-45.03751,0
1617982136.658455,18,0,0,0,0,0,0,0,0,0,1617982136.648326,13.94520568847656,2.187311172485352,-40.62080001831055,280.8855895996094,287.9066772460938,13.62398242950439,26389.78835875,-0.0870208740234375,-0.0624542236328125,-0.9855499267578125,26389.77839775,-0.5078458786010742,-0.7382681965827942,-0.06213314458727837,26389.76946775,90.254150390625,19.8304443359375,-27.83616638183594,26389.77217075,0.6911453580461813,-0.05573306070855423,0.1236202607464347,-0.624426543712616,-0.7103967070579529,-0.03580310568213463,-0.004337061196565628,0.009749695658683777,-0.02560579776763916,2,0.06751656376740751,-0.005249816187010186,0.3363380552970249,0.9393033348924589,-0.05527912080287933,-0.1233056411147118,-0.9908279180526733,14.25560760498047,1.784904479980469,-40.33424377441406,-1,2,26388.846207625,4,2,1617982135.761883,0,0,0,0,0,0,0,0,0,26386.853398,0,-0.3170776,97.30171,0,0,0,0,1617982136.594888,1,1617982136.009866,1,0.78,1617982136.64646,-28.13221,-41.17529,0
1617982136.718516,19,0,0,0,0,0,0,0,0,0,1617982136.708369,12.50364685058594,3.408514022827148,-40.88817596435547,281.3533325195312,288.3744201660156,13.62414360046387,26389.84812775,-0.0791168212890625,-0.1543731689453125,-0.8915863037109375,26389.84812775,0.2016425728797913,0.3208283483982086,-0.06131076067686081,26389.82945875,88.69258117675781,21.2674560546875,-28.19564819335938,26389.83193975,0.6828742216652168,-0.07522328666411567,0.1107008528259734,0.08506989479064941,0.06804307550191879,-0.1039775907993317,-0.0103144571185112,-0.007887564599514008,0.08741229772567749,2,0.06466348295834559,-0.01686681225079857,0.332132149063449,0.9408626507083716,-0.07469235360622406,-0.1104748919606209,-0.9910683035850525,12.63582611083984,3.348604202270508,-40.86219024658203,-1,2,26388.846207625,4,2,1617982135.761883,0,0,0,0,0,0,0,0,0,26386.853398,0,-0.3170776,97.30171,0,0,0,0,1617982136.594888,1,1617982136.009866,1,0.78,1617982136.712986,-28.13221,-31.62665,0
1617982136.777687,20,0,0,0,0,0,0,0,0,0,1617982136.75047,12.72678375244141,3.395780563354492,-40.99731063842773,281.4327697753906,288.453857421875,13.6242504119873,26389.90789675,-0.026214599609375,-0.10748291015625,-1.0147705078125,26389.88299275,0.2208407670259476,0.4116258919239044,-0.06247056648135185,26389.88944775,89.15249633789062,21.10397338867188,-27.84967041015625,26389.89170875,0.6801053975200322,-0.05481578771560641,0.122830041769621,0.1561347842216492,0.3211966454982758,-0.08578988909721375,-0.004538718611001968,-0.006125472486019135,0.00498276948928833,2,0.0669632545954269,-0.00532289408948099,0.3311972292909363,0.9411674384836062,-0.05437555909156799,-0.1225214153528214,-0.9909752011299133,12.95790100097656,3.262784957885742,-40.60282135009766,-1,2,26388.846207625,4,2,1617982135.761883,0,0,0,0,0,0,0,0,0,26386.853398,0,-0.3170776,97.30171,0,0,0,0,1617982136.594888,1,1617982136.009866,1,0.78,1617982136.745841,-28.13221,-32.07992,0
1617982136.837512,21,0,0,0,0,0,0,0,0,0,1617982136.82907,13.54126739501953,3.024515151977539,-39.9122428894043,281.9918518066406,289.012939453125,13.6244649887085,26389.96766575,-0.0400848388671875,-0.1504058837890625,-0.9679412841796875,26389.95272275,-0.2735543251037598,-0.1916732937097549,-0.06777984648942947,26389.94943275,89.7060546875,20.81517028808594,-27.18241882324219,26389.95147775,0.6716387357081237,-0.05587983810606642,0.1180324418616706,-0.2837169170379639,-0.2015331089496613,-0.06870975345373154,0.0229150801897049,-0.04699061065912247,0.003790855407714844,2,0.0648557134993816,-0.006900359650718862,0.327285070424675,0.9426720554673501,-0.05546216666698456,-0.1177585646510124,-0.9914922714233398,13.61627960205078,2.901174545288086,-39.79276275634766,-1,2,26388.846207625,4,2,1617982135.761883,0,0,0,0,0,0,0,0,0,26386.853398,0,-0.3170776,97.30171,0,0,0,0,1617982136.594888,1,1617982136.009866,1,0.78,1617982136.812912,-28.13221,-34.19896,0
1617982136.89716,22,0,0,0,0,0,0,0,0,0,1617982136.887595,13.22996520996094,3.601997375488281,-40.11616134643555,282.0794677734375,289.1005554199219,13.62462615966797,26390.02743375,-0.06365966796875,-0.1080322265625,-0.9949951171875,26390.02245375,0.1139550656080246,0.1814014762639999,-0.04161854833364487,26390.00941775,89.38182067871094,21.52323913574219,-27.58810424804688,26390.01124675,0.669685270306132,-0.0580668334191887,0.1079149612372886,0.05470879748463631,0.1261095851659775,-0.02394027821719646,-0.001629646867513657,-0.007009975612163544,0.003188431262969971,2,0.06044034907585707,-0.0096617433377791,0.3265253369793262,0.9432046345157384,-0.05769661441445351,-0.1077056303620338,-0.9925072193145752,13.26107025146484,3.615577697753906,-40.25200271606445,-1,2,26388.846207625,4,2,1617982135.761883,0,0,0,0,0,0,0,0,0,26386.853398,0,-0.3170776,97.30171,0,0,0,0,1617982136.594888,1,1617982136.009866,1,0.78,1617982136.879627,-28.13221,-36.46314,0
1617982136.957053,23,0,0,0,0,0,0,0,0,0,1617982136.947142,13.55242156982422,3.714023590087891,-40.59616088867188,282.2973937988281,289.3184814453125,13.62473583221436,26390.08720275,-0.0367889404296875,-0.1446533203125,-1.078659057617188,26390.05731875,0.02299266681075096,0.1415555328130722,-0.08235213160514832,26390.06940375,89.66525268554688,21.54087829589844,-27.89212036132812,26390.07101475,0.666259006384516,-0.0482377963980172,0.1124850851980445,-0.06230525299906731,-0.02607649378478527,-0.07331988960504532,0.009889364242553711,-0.01150079071521759,-0.07383608818054199,2,0.06098075194240828,-0.004378298474545184,0.325108905694541,0.9436983711339051,-0.04791435599327087,-0.1122480258345604,-0.9925243854522705,13.51419830322266,3.695684432983398,-40.53391647338867,-1,2,26388.846207625,4,2,1617982135.761883,0,0,0,0,0,0,0,0,0,26386.853398,0,-0.3170776,97.30171,0,0,0,0,1617982136.594888,1,1617982136.009866,1,0.78,1617982136.946465,-28.13221,-38.84588,0
1617982137.01694,24,0,0,0,0,0,0,0,0,0,1617982137.006981,13.23253631591797,4.067556381225586,-40.92916107177734,282.3641052246094,289.3851928710938,13.62484645843506,26390.14697175,-0.0577392578125,-0.1226043701171875,-0.9669952392578125,26390.12704875,-0.1082542985677719,-0.2205816358327866,-0.006246177945286036,26390.12938775,89.42774963378906,21.92616271972656,-28.31986999511719,26390.13078375,0.6644303210682261,-0.06042824284840476,0.1058336776831489,-0.1135192215442657,-0.2000402808189392,0.0009446789044886827,0.006922375410795212,-0.01489299535751343,-0.01764881610870361,2,0.05981597339747893,-0.01127550400999522,0.3240222044076331,0.9440893417110167,-0.06005357205867767,-0.1056362167000771,-0.9925898313522339,13.3575439453125,4.00568962097168,-40.92898941040039,-1,2,26388.846207625,4,2,1617982135.761883,0,0,0,0,0,0,0,0,0,26386.853398,0,-0.3170776,97.30171,1617982137.011228,1681917671,1683868891,0,1617982136.594888,1,1617982136.009866,1,0.78,1617982137.012192,-28.13221,-40.78163,0
1617982137.076484,25,0,0,0,0,0,0,0,0,0,1617982137.066838,12.92033386230469,4.089742660522461,-40.94468688964844,282.2098388671875,289.2309265136719,13.62495803833008,26390.20674075,-0.046539306640625,-0.1116790771484375,-1.000640869140625,26390.19677875,0.1340110599994659,0.1476168930530548,0.04290752112865448,26390.18936775,89.01206970214844,21.99900817871094,-28.31735229492188,26390.19055275,0.6666373001023518,-0.05759780393252064,0.1079453378783286,0.125384122133255,0.1676149964332581,0.04673417657613754,-0.004277363419532776,-0.003348186612129211,0.0343400239944458,2,0.06036363438634215,-0.009527547247456993,0.3251010155172695,0.9437027635626433,-0.05723090469837189,-0.1077358275651932,-0.9925309419631958,12.90438079833984,4.150955200195312,-40.96831512451172,-1,2,26388.846207625,4,2,1617982135.761883,0,0,0,0,0,0,0,0,0,26386.853398,0,-0.3170776,97.30171,1617982137.011228,1681917671,1683868891,0,1617982136.594888,1,1617982136.009866,1,0.78,1617982137.04595,-28.13221,-41.32306,0
1617982137.136408,26,0,0,0,0,0,0,0,0,0,1617982137.126533,13.13359069824219,3.885854721069336,-40.92565155029297,282.0722351074219,289.0933227539062,13.62504863739014,26390.26650975,-0.047637939453125,-0.1167755126953125,-0.976470947265625,26390.26650975,-0.1016294211149216,-0.07347341626882553,0.05307040736079216,26390.24934975,89.32876586914062,21.71580505371094,-28.24961853027344,26390.25032175,0.6691320214197589,-0.05717546047153797,0.1107430867100681,-0.09662725031375885,-0.09579127281904221,0.04214669391512871,0.0133218839764595,-0.003435805439949036,-0.004057168960571289,2,0.06162464890008564,-0.008792523831685661,0.3262278377352456,0.9432394356647121,-0.05679426342248917,-0.1105168685317039,-0.9922502040863037,13.22173309326172,3.822111129760742,-40.87378311157227,-1,2,26388.846207625,4,2,1617982135.761883,0,0,0,0,0,0,0,0,0,26387.799693,0,-0.359375,97.30222,1617982137.011228,1681917671,1683868891,0,1617982137.115409,1,1617982136.009866,1,0.78,1617982137.113344,-28.13221,-42.96332,0
1617982137.196499,27,0,0,0,0,0,0,0,0,0,1617982137.186217,12.85732269287109,4.280799865722656,-41.27338409423828,281.8446960449219,288.8657836914062,13.6251335144043,26390.32627875,-0.06353759765625,-0.09051513671875,-0.989288330078125,26390.30137475,-0.009783654473721981,0.05700442939996719,0.07577785104513168,26390.30933975,88.93348693847656,22.12440490722656,-28.52680969238281,26390.31009075,0.6727521267240875,-0.05895900912034631,0.1062914764900328,0.02315276302397251,0.08593016117811203,0.0804959237575531,-0.001542672514915466,0.007534891366958618,0.02442795038223267,2,0.05983699498710145,-0.0102582175068497,0.3279811746824643,0.9427315769452456,-0.0585923083126545,-0.1060914471745491,-0.9926286339759827,12.85757446289062,4.213300704956055,-41.16719818115234,-1,2,26388.846207625,4,2,1617982135.761883,0,0,0,0,0,0,0,0,0,26387.799693,0,-0.359375,97.30222,1617982137.011228,1681917671,1683868891,0,1617982137.115409,1,1617982136.009866,1,0.78,1617982137.17976,-28.13221,-44.62997,0
1617982137.257212,28,0,0,0,0,0,0,0,0,0,1617982137.246153,13.14089965820312,4.00279426574707,-41.26400375366211,281.7402038574219,288.7612915039062,13.62521553039551,26390.386046375,-0.0635986328125,-0.10498046875,-0.9959564208984375,26390.371104375,-0.01553794648498297,0.05941911786794662,-0.000600809114985168,26390.369324375,89.26571655273438,21.87040710449219,-28.6143798828125,26390.369858375,0.6753247792327275,-0.05287876551807049,0.1101686594469151,-0.0227388683706522,0.05588382109999657,0.001747821341268718,-0.01811458170413971,0.01425803452730179,-0.001775443553924561,2,0.06067396717003361,-0.0066727900751011,0.3292909916488413,0.9422535233447127,-0.05253370106220245,-0.1099459379911423,-0.9925482869148254,13.14089965820312,4.00279426574707,-41.26400375366211,-1,2,26388.846207625,4,2,1617982135.761883,0,0,0,0,0,0,0,0,0,26387.799693,0,-0.359375,97.30222,1617982137.011228,1681917671,1683868891,0,1617982137.115409,1,1617982136.009866,1,0.78,1617982137.246386,-28.13221,-45.40747,0
1617982137.31558,29,0,0,0,0,0,0,0,0,0,1617982137.30599,13.28340148925781,4.097040176391602,-41.27983856201172,281.8289184570312,288.8500061035156,13.62529754638672,26390.445815375,-0.0645904541015625,-0.0920867919921875,-1.002639770507812,26390.440834375,0.01538108661770821,0.04790334403514862,-0.0700714960694313,26390.429311375,89.41703796386719,22.00419616699219,-28.64051818847656,26390.429627375,0.6743871884956706,-0.05141592817319473,0.1063784693408873,-0.01635006628930569,0.04364508017897606,-0.05681129544973373,-0.02058312296867371,0.0211254209280014,-0.0006344914436340332,2,0.05864599562365296,-0.006640272027783719,0.3289733356483913,0.9424930894916204,-0.05110275745391846,-0.1061779484152794,-0.9930331110954285,13.20551300048828,4.064218521118164,-41.38821792602539,-1,2,26388.846207625,4,2,1617982135.761883,0,0,0,0,0,0,0,0,0,26387.799693,0,-0.359375,97.30222,1617982137.011228,1681917671,1683868891,0,1617982137.115409,1,1617982136.009866,1,0.78,1617982137.313016,-28.13221,-45.29253,0
1617982137.376723,30,0,0,0,0,0,0,0,0,0,1617982137.365921,13.37345886230469,4.153881072998047,-41.25157165527344,282.0657958984375,289.0868835449219,13.62537956237793,26390.505584375,-0.04388427734375,-0.124908447265625,-1.003204345703125,26390.475700375,-0.02167014218866825,0.04594432190060616,-0.07518396526575089,26390.489293375,89.48721313476562,22.05195617675781,-28.60499572753906,26390.489396375,0.6702250978749019,-0.04948621455816631,0.1052752689145272,-0.05397749692201614,0.03074016235768795,-0.06215769797563553,-0.002382632344961166,-0.01155728846788406,-0.007623434066772461,2,0.05779671260907232,-0.006034050324361696,0.3270901334749482,0.943204807618841,-0.0491921603679657,-0.1050809174776077,-0.9932462573051453,13.34552764892578,4.143886566162109,-41.378173828125,-1,2,26388.846207625,4,2,1617982135.761883,0,0,0,0,0,0,0,0,0,26387.799693,0,-0.359375,97.30222,1617982137.011228,1681917671,1683868891,0,1617982137.115409,1,1617982136.009866,1,0.78,1617982137.345756,-28.13221,-42.35418,0
1617982137.628959,31,0,0,0,0,0,0,0,0,0,1617982137.624881,13.83067321777344,4.574140548706055,-40.08494186401367,282.0528869628906,289.073974609375,13.62574481964111,26390.539203375,-0.050384521484375,-0.135833740234375,-0.9799041748046875,26390.510565375,-0.04607934504747391,0.0235252995043993,-0.03708265349268913,26390.489293375,89.48721313476562,22.05195617675781,-28.60499572753906,26390.489396375,0.6702250978749019,-0.04948621455816631,0.1052752689145272,-0.05397749692201614,0.03074016235768795,-0.06215769797563553,-0.002382632344961166,-0.01155728846788406,-0.007623434066772461,2,0.05779671260907232,-0.006034050324361696,0.3270901334749482,0.943204807618841,-0.0491921603679657,-0.1050809174776077,-0.9932462573051453,13.34552764892578,4.143886566162109,-41.378173828125,-1,2,26388.846207625,4,2,1617982135.761883,0,0,0,0,0,0,0,0,0,26387.799693,0,-0.359375,97.30222,1617982137.011228,1681917671,1683868891,0,1617982137.391617,1,1617982136.009866,1,0.78,1617982137.627775,-34.26227,-44.76511,0
1617982137.62953,32,0,0,0,0,0,0,0,0,0,1617982137.624881,13.83067321777344,4.574140548706055,-40.08494186401367,282.0528869628906,289.073974609375,13.62574481964111,26390.572824375,-0.0550689697265625,-0.123046875,-1.008834838867188,26390.544185375,0.01977823115885258,0.02789714559912682,-0.01631985045969486,26390.549272375,89.94625854492188,21.64796447753906,-26.70773315429688,26390.549165375,0.6688609911676511,-0.04502223632510293,0.1027965739892333,-0.005817350000143051,0.001042658928781748,-0.02824009023606777,0.009140074253082275,-0.0131223201751709,-0.0737612247467041,2,0.05589548510186905,-0.004375246031054561,0.3266223763905506,0.9434906210906915,-0.04476943984627724,-0.102615624666214,-0.9937130808830261,13.71099853515625,3.867166519165039,-39.88285446166992,-1,2,26388.846207625,4,2,1617982135.761883,0,0,0,0,0,0,0,0,0,26387.799693,0,-0.359375,97.30222,1617982137.011228,1681917671,1683868891,0,1617982137.391617,1,1617982136.009866,1,0.78,1617982137.627775,-34.26227,-44.76511,0
1617982137.629723,33,0,0,0,0,0,0,0,0,0,1617982137.624881,13.83067321777344,4.574140548706055,-40.08494186401367,282.0528869628906,289.073974609375,13.62574481964111,26390.606444375,-0.0394134521484375,-0.11163330078125,-1.014053344726562,26390.577804375,-0.06058238819241524,0.0146295428276062,-0.0170612744987011,26390.549272375,89.94625854492188,21.64796447753906,-26.70773315429688,26390.549165375,0.6688609911676511,-0.04502223632510293,0.1027965739892333,-0.005817350000143051,0.001042658928781748,-0.02824009023606777,0.009140074253082275,-0.0131223201751709,-0.0737612247467041,2,0.05589548510186905,-0.004375246031054561,0.3266223763905506,0.9434906210906915,-0.04476943984627724,-0.102615624666214,-0.9937130808830261,13.71099853515625,3.867166519165039,-39.88285446166992,-1,2,26388.846207625,4,2,1617982135.761883,0,0,0,0,0,0,0,0,0,26387.799693,0,-0.359375,97.30222,1617982137.011228,1681917671,1683868891,0,1617982137.391617,1,1617982136.009866,1,0.78,1617982137.627775,-34.26227,-44.76511,0
1617982137.629934,34,0,0,0,0,0,0,0,0,0,1617982137.624881,13.83067321777344,4.574140548706055,-40.08494186401367,282.0528869628906,289.073974609375,13.62574481964111,26390.640065375,-0.0568084716796875,-0.09722900390625,-0.9882659912109375,26390.611425375,-0.0213023591786623,-0.01210060529410839,0.02430400811135769,26390.609253375,89.9351806640625,21.88839721679688,-27.14570617675781,26390.608934375,0.6682088601821471,-0.04608490122676407,0.1009668202513104,-0.03582834452390671,-0.01994497515261173,0.0247554536908865,0.008068379014730453,-0.01105160266160965,-0.02384930849075317,2,0.05520484453132512,-0.005195388394954696,0.3263201397941519,0.9436316743036263,-0.04583397135138512,-0.1007953584194183,-0.9938508868217468,13.64130401611328,4.251131057739258,-40.83307647705078,-1,2,26388.846207625,4,2,1617982135.761883,0,0,0,0,0,0,0,0,0,26387.799693,0,-0.359375,97.30222,1617982137.011228,1681917671,1683868891,0,1617982137.391617,1,1617982136.009866,1,0.78,1617982137.627775,-34.26227,-44.76511,0
1617982137.630124,35,0,0,0,0,0,0,0,0,0,1617982137.624881,13.83067321777344,4.574140548706055,-40.08494186401367,282.0528869628906,289.073974609375,13.62574481964111,26390.673684375,-0.0525054931640625,-0.1045684814453125,-1.002532958984375,26390.645045375,-0.06530017405748367,0.0437682531774044,0.01394457742571831,26390.669234375,89.76272583007812,22.383056640625,-28.35295104980469,26390.668703375,0.669436097684731,-0.04474741202007717,0.09861761754693196,-0.04043257981538773,0.04712057113647461,0.02585629001259804,-0.009653657674789429,-0.004142284393310547,-0.001063644886016846,2,0.05388207236500036,-0.004917118001111692,0.3269799855232494,0.9434811921590731,-0.04451513662934303,-0.09845784306526184,-0.9941450953483582,13.6768798828125,4.496541976928711,-40.74460601806641,-1,2,26388.846207625,4,2,1617982135.761883,0,0,0,0,0,0,0,0,0,26387.799693,0,-0.359375,97.30222,1617982137.011228,1681917671,1683868891,0,1617982137.391617,1,1617982136.009866,1,0.78,1617982137.627775,-34.26227,-44.76511,0
1617982137.63029,36,0,0,0,0,0,0,0,0,0,1617982137.624881,13.83067321777344,4.574140548706055,-40.08494186401367,282.0528869628906,289.073974609375,13.62574481964111,26390.707303375,-0.054779052734375,-0.099822998046875,-0.9986419677734375,26390.678664375,-0.003575559938326478,0.03381628543138504,0.02268853411078453,26390.669234375,89.76272583007812,22.383056640625,-28.35295104980469,26390.668703375,0.669436097684731,-0.04474741202007717,0.09861761754693196,-0.04043257981538773,0.04712057113647461,0.02585629001259804,-0.009653657674789429,-0.004142284393310547,-0.001063644886016846,2,0.05388207236500036,-0.004917118001111692,0.3269799855232494,0.9434811921590731,-0.04451513662934303,-0.09845784306526184,-0.9941450953483582,13.6768798828125,4.496541976928711,-40.74460601806641,-1,2,26388.846207625,4,2,1617982135.761883,0,0,0,0,0,0,0,0,0,26387.799693,0,-0.359375,97.30222,1617982137.011228,1681917671,1683868891,0,1617982137.391617,1,1617982136.009866,1,0.78,1617982137.627775,-34.26227,-44.76511,0
1617982137.630472,37,0,0,0,0,0,0,0,0,0,1617982137.624881,13.83067321777344,4.574140548706055,-40.08494186401367,282.0528869628906,289.073974609375,13.62574481964111,26390.740924375,-0.058746337890625,-0.119293212890625,-0.985992431640625,26390.712285375,-0.07334531843662262,-0.03257232531905174,-0.01600266806781292,26390.729209375,90.04685974121094,22.209228515625,-27.33470153808594,26390.728471375,0.669633719346048,-0.04543937607688566,0.09568231183256853,-0.150773897767067,-0.03814420104026794,-0.003771074116230011,-0.01038714498281479,-0.01246535778045654,0.00271451473236084,2,0.05261208360644569,-0.005721311840147694,0.3271094018757754,0.9435035138261809,-0.04521597176790237,-0.09553638100624084,-0.9943984746932983,13.79221343994141,4.518529891967773,-40.58185958862305,-1,2,26388.846207625,4,2,1617982135.761883,0,0,0,0,0,0,0,0,0,26387.799693,0,-0.359375,97.30222,1617982137.011228,1681917671,1683868891,0,1617982137.391617,1,1617982136.009866,1,0.78,1617982137.627775,-34.26227,-44.76511,0
1617982137.644346,38,0,0,0,0,0,0,0,0,0,1617982137.624881,13.83067321777344,4.574140548706055,-40.08494186401367,282.0528869628906,289.073974609375,13.62574481964111,26390.774544375,-0.060943603515625,-0.10821533203125,-0.9864044189453125,26390.745904375,-0.1385525465011597,0.01330994628369808,0.01638483256101608,26390.729209375,90.04685974121094,22.209228515625,-27.33470153808594,26390.728471375,0.669633719346048,-0.04543937607688566,0.09568231183256853,-0.150773897767067,-0.03814420104026794,-0.003771074116230011,-0.01038714498281479,-0.01246535778045654,0.00271451473236084,2,0.05261208360644569,-0.005721311840147694,0.3271094018757754,0.9435035138261809,-0.04521597176790237,-0.09553638100624084,-0.9943984746932983,13.79221343994141,4.518529891967773,-40.58185958862305,-1,2,26388.846207625,4,2,1617982135.761883,0,0,0,0,0,0,0,0,0,26387.799693,0,-0.359375,97.30222,1617982137.011228,1681917671,1683868891,0,1617982137.391617,1,1617982136.009866,1,0.78,1617982137.627775,-34.26227,-44.76511,0
1617982137.674468,39,0,0,0,0,0,0,0,0,0,1617982137.664703,13.72109222412109,4.936275482177734,-40.7105712890625,282.015869140625,289.0369567871094,13.62580108642578,26390.808163375,-0.050750732421875,-0.1240386962890625,-0.9973297119140625,26390.779525375,-0.01138394791632891,0.1295590549707413,0.01209314819425344,26390.789199375,89.81736755371094,22.84663391113281,-28.17369079589844,26390.788240375,0.6704349911528716,-0.04276578282531855,0.09027995204977647,0.005628160201013088,0.1317008882761002,0.0104468297213316,-0.0183040164411068,-0.01821058988571167,0.003088831901550293,2,0.04962993808262964,-0.005329120425242868,0.3276532056232396,0.9434786248017414,-0.04257863759994507,-0.09015736728906631,-0.9950169324874878,13.73709869384766,4.895401000976562,-40.56145858764648,-1,2,26388.846207625,4,2,1617982135.761883,0,0,0,0,0,0,0,0,0,26387.799693,0,-0.359375,97.30222,1617982137.011228,1681917671,1683868891,0,1617982137.391617,1,1617982136.009866,1,0.78,1617982137.64595,-34.81955,-45.33812,0
1617982137.71408,40,0,0,0,0,0,0,0,0,0,1617982137.704487,13.80512237548828,5.147104263305664,-41.42292785644531,282.0206604003906,289.041748046875,13.62585544586182,26390.841784375,-0.0547943115234375,-0.1316375732421875,-1.002029418945312,26390.813145375,-0.006155097857117653,0.1063530743122101,0.005387574899941683,26390.789199375,89.81736755371094,22.84663391113281,-28.17369079589844,26390.788240375,0.6704349911528716,-0.04276578282531855,0.09027995204977647,0.005628160201013088,0.1317008882761002,0.0104468297213316,-0.0183040164411068,-0.01821058988571167,0.003088831901550293,2,0.04962993808262964,-0.005329120425242868,0.3276532056232396,0.9434786248017414,-0.04257863759994507,-0.09015736728906631,-0.9950169324874878,13.73709869384766,4.895401000976562,-40.56145858764648,-1,2,26388.846207625,4,2,1617982135.761883,0,0,0,0,0,0,0,0,0,26387.799693,0,-0.359375,97.30222,1617982137.011228,1681917671,1683868891,0,1617982137.391617,1,1617982136.009866,1,0.78,1617982137.713187,-36.49139,-46.97343,0
1617982137.746599,41,0,0,0,0,0,0,0,0,0,1617982137.744555,13.88519287109375,5.270772933959961,-41.11415100097656,281.9875183105469,289.0086059570312,13.62591075897217,26390.875403375,-0.0314178466796875,-0.12469482421875,-0.99041748046875,26390.846764375,-0.1414524614810944,0.02786252461373806,-0.0001440770138287917,26390.849183375,89.98974609375,23.04415893554688,-28.66520690917969,26390.848009375,0.6703533173736008,-0.03922093505856349,0.08866943165353317,-0.1569766402244568,0.02573157660663128,0.005817809142172337,-0.01421168074011803,-0.04453390091657639,-0.004297852516174316,2,0.04828966107659113,-0.003924101864904959,0.3277288691729834,0.9435287776793588,-0.03905683755874634,-0.088553287088871,-0.9953054189682007,13.87003326416016,5.184171676635742,-41.36603164672852,-1,2,26388.846207625,4,2,1617982135.761883,0,0,0,0,0,0,0,0,0,26387.799693,0,-0.359375,97.30222,1617982137.011228,1681917671,1683868891,0,1617982137.391617,1,1617982136.009866,1,0.78,1617982137.713187,-36.49139,-46.97343,0
1617982137.784036,42,0,0,0,0,0,0,0,0,0,1617982137.764531,13.78632354736328,5.698835372924805,-41.57608413696289,281.9284973144531,288.9495849609375,13.62593841552734,26390.909024375,-0.04425048828125,-0.1182403564453125,-0.967529296875,26390.880385375,-0.1814084053039551,-0.1033689975738525,0.04870202392339706,26390.909165375,89.69979858398438,23.73417663574219,-29.03413391113281,26390.907778375,0.6726940997392318,-0.0451839992843184,0.07887686023652579,-0.2439291775226593,-0.1280155181884766,0.08154860138893127,-0.0009313710033893585,-0.04069650918245316,0.02834409475326538,2,0.04465926289661041,-0.008298093121994771,0.3288594418398065,0.9432859304900731,-0.0450281910598278,-0.07879509776830673,-0.9958733916282654,13.75990295410156,5.763387680053711,-41.66654205322266,-1,2,26388.846207625,4,2,1617982135.761883,0,0,0,0,0,0,0,0,0,26387.799693,0,-0.359375,97.30222,1617982137.011228,1681917671,1683868891,0,1617982137.391617,1,1617982136.009866,1,0.78,1617982137.78073,-38.16323,-46.98994,0
1617982137.814128,43,0,0,0,0,0,0,0,0,0,1617982137.804601,13.56468963623047,6.017181396484375,-41.60358810424805,281.7279968261719,288.7490844726562,13.6259937286377,26390.942644375,-0.033203125,-0.120391845703125,-0.9479522705078125,26390.947624375,-0.217516615986824,-0.06056640669703484,0.1696175336837769,26390.909165375,89.69979858398438,23.73417663574219,-29.03413391113281,26390.907778375,0.6726940997392318,-0.0451839992843184,0.07887686023652579,-0.2439291775226593,-0.1280155181884766,0.08154860138893127,-0.0009313710033893585,-0.04069650918245316,0.02834409475326538,2,0.04465926289661041,-0.008298093121994771,0.3288594418398065,0.9432859304900731,-0.0450281910598278,-0.07879509776830673,-0.9958733916282654,13.75990295410156,5.763387680053711,-41.66654205322266,-1,2,26388.846207625,4,2,1617982135.761883,0,0,0,0,0,0,0,0,0,26387.799693,0,-0.359375,97.30222,1617982137.011228,1681917671,1683868891,0,1617982137.391617,1,1617982136.009866,1,0.78,1617982137.78073,-38.16323,-46.98994,0
1617982137.843692,44,0,0,0,0,0,0,0,0,0,1617982137.824221,13.48385620117188,6.137542724609375,-41.66488647460938,281.5490112304688,288.5700988769531,13.62602138519287,26390.976263375,-0.0325775146484375,-0.0965728759765625,-0.9548797607421875,26390.947624375,-0.217516615986824,-0.06056640669703484,0.1696175336837769,26390.969150375,89.41548156738281,24.1036376953125,-29.20431518554688,26390.967547375,0.6804567279057359,-0.05100215345330271,0.06773381224723062,-0.1728425174951553,-0.03423481807112694,0.1949863135814667,0.01935365796089172,-0.04047228395938873,0.04806065559387207,2,0.04041308709916619,-0.01272729582360304,0.3325886680006387,0.9421198182303669,-0.05086314305663109,-0.06768203526735306,-0.9964095950126648,13.45780181884766,6.143081665039062,-41.66260528564453,-1,2,26388.846207625,4,2,1617982135.761883,0,0,0,0,0,0,0,0,0,26387.799693,0,-0.359375,97.30222,1617982137.011228,1681917671,1683868891,0,1617982137.391617,1,1617982136.009866,1,0.78,1617982137.815793,-38.7205,-47.22392,0
1617982137.883906,45,0,0,0,0,0,0,0,0,0,1617982137.864311,13.25632476806641,6.334203720092773,-41.83343887329102,281.1344604492188,288.1555480957031,13.62608814239502,26391.009884375,-0.0437469482421875,-0.1031646728515625,-0.9538421630859375,26391.014864375,-0.07984583079814911,0.00763048930093646,0.1711419224739075,26390.969150375,89.41548156738281,24.1036376953125,-29.20431518554688,26390.967547375,0.6804567279057359,-0.05100215345330271,0.06773381224723062,-0.1728425174951553,-0.03423481807112694,0.1949863135814667,0.01935365796089172,-0.04047228395938873,0.04806065559387207,2,0.04041308709916619,-0.01272729582360304,0.3325886680006387,0.9421198182303669,-0.05086314305663109,-0.06768203526735306,-0.9964095950126648,13.45780181884766,6.143081665039062,-41.66260528564453,-1,2,26388.846207625,4,2,1617982135.761883,0,0,0,0,0,0,0,0,0,26387.799693,0,-0.359375,97.30222,1617982137.011228,1681917671,1683868891,0,1617982137.391617,1,1617982136.009866,1,0.78,1617982137.881402,-39.41458,-47.64369,0
1617982137.913611,46,0,0,0,0,0,0,0,0,0,1617982137.904184,13.25615692138672,6.430078506469727,-41.74813461303711,280.7357788085938,287.7568664550781,13.62616443634033,26391.043504375,-0.0347747802734375,-0.1233367919921875,-0.975555419921875,26391.014864375,-0.07984583079814911,0.00763048930093646,0.1711419224739075,26391.029128375,89.35536193847656,24.33670043945312,-29.13871765136719,26391.027316375,0.691013637074951,-0.05217900786549046,0.06434476746339855,-0.1318178772926331,-0.007852869108319283,0.1834506690502167,0.01139790192246437,-0.05058306455612183,0.02959245443344116,2,0.03908584578091429,-0.01364188217823785,0.3375935666703395,0.9403813317278134,-0.05204740166664124,-0.06430037319660187,-0.9965723752975464,13.26479339599609,6.398599624633789,-41.78133773803711,-1,2,26388.846207625,4,2,1617982135.761883,0,0,0,0,0,0,0,0,0,26387.799693,0,-0.359375,97.30222,1617982137.011228,1681917671,1683868891,0,1617982137.391617,1,1617982136.009866,1,0.78,1617982137.881402,-39.41458,-47.64369,0
1617982137.943562,47,0,0,0,0,0,0,0,0,0,1617982137.923816,13.27060699462891,6.409542083740234,-41.68801116943359,280.4758605957031,287.4969482421875,13.6262035369873,26391.077123375,-0.037628173828125,-0.0709991455078125,-1.011703491210938,26391.048485375,-0.1907009780406952,0.01438932586461306,0.2420216798782349,26391.029128375,89.35536193847656,24.33670043945312,-29.13871765136719,26391.027316375,0.691013637074951,-0.05217900786549046,0.06434476746339855,-0.1318178772926331,-0.007852869108319283,0.1834506690502167,0.01139790192246437,-0.05058306455612183,0.02959245443344116,2,0.03908584578091429,-0.01364188217823785,0.3375935666703395,0.9403813317278134,-0.05204740166664124,-0.06430037319660187,-0.9965723752975464,13.26479339599609,6.398599624633789,-41.78133773803711,-1,2,26388.846207625,4,2,1617982135.761883,0,0,0,0,0,0,0,0,0,26387.799693,0,-0.359375,97.30222,1617982137.011228,1681917671,1683868891,0,1617982137.391617,1,1617982136.009866,1,0.78,1617982137.916162,-39.41458,-44.33684,0
1617982137.994616,48,0,0,0,0,0,0,0,0,0,1617982137.983646,13.27645111083984,6.803159713745117,-41.6588249206543,279.7006530761719,286.7217407226562,13.62636852264404,26391.110744375,-0.04290771484375,-0.0509490966796875,-1.026473999023438,26391.082104375,-0.2147519886493683,-0.03884007409214973,0.2453242689371109,26391.089109375,89.42996215820312,24.60406494140625,-29.01664733886719,26391.087084375,0.7048761612402508,-0.05229612877220948,0.05289685350802004,-0.2292590737342834,-0.06361135095357895,0.2357956171035767,0.01469298452138901,-0.006118312478065491,-0.02832239866256714,2,0.03383315128270207,-0.01540399777539951,0.3442994274987884,0.9381237268328612,-0.05219918116927147,-0.0528721883893013,-0.9972360730171204,13.35250091552734,6.539945602416992,-41.65254974365234,-1,2,26388.846207625,4,2,1617982135.761883,0,0,0,0,0,0,0,0,0,26387.799693,0,-0.359375,97.30222,1617982137.011228,1681917671,1683868891,0,1617982137.391617,1,1617982136.009866,1,0.78,1617982137.982169,-39.41458,-45.15697,0
1617982138.013261,49,0,0,0,0,0,0,0,0,0,1617982138.003778,13.25953674316406,6.815919876098633,-41.70254898071289,279.5049743652344,286.5260620117188,13.62642288208008,26391.144363375,-0.058380126953125,-0.0428619384765625,-0.9976806640625,26391.115724375,-0.2335227429866791,-0.1062739714980125,0.199362114071846,26391.089109375,89.42996215820312,24.60406494140625,-29.01664733886719,26391.087084375,0.7048761612402508,-0.05229612877220948,0.05289685350802004,-0.2292590737342834,-0.06361135095357895,0.2357956171035767,0.01469298452138901,-0.006118312478065491,-0.02832239866256714,2,0.03383315128270207,-0.01540399777539951,0.3442994274987884,0.9381237268328612,-0.05219918116927147,-0.0528721883893013,-0.9972360730171204,13.35250091552734,6.539945602416992,-41.65254974365234,-1,2,26388.846207625,4,2,1617982135.761883,0,0,0,0,0,0,0,0,0,26387.799693,0,-0.359375,97.30222,1617982137.011228,1681917671,1683868891,0,1617982137.391617,1,1617982136.009866,1,0.78,1617982138.012067,-39.41458,-45.46586,0
1617982138.056393,50,0,0,0,0,0,0,0,0,0,1617982138.043562,13.12252044677734,7.067804336547852,-41.69482803344727,279.2225036621094,286.2435913085938,13.62653255462646,26391.177984375,-0.062164306640625,-0.0476531982421875,-1.020278930664062,26391.149345375,-0.2117452770471573,0.02371784672141075,0.1469526886940002,26391.149094375,89.23861694335938,24.83935546875,-29.12353515625,26391.146853375,0.7158284677743431,-0.05719974955232617,0.03765996394595202,-0.2311648726463318,0.0192069411277771,0.150864377617836,-0.002030391246080399,-0.004447959363460541,0.0008762478828430176,2,0.02764446524461489,-0.02018562924480694,0.3496117251413586,0.9362692934773854,-0.05712802708148956,-0.03765106201171875,-0.9976566433906555,13.19676208496094,6.843944549560547,-41.68651962280273,-1,2,26388.846207625,4,2,1617982135.761883,0,0,0,0,0,0,0,0,0,26388.746106,0,-0.3858032,97.30253,1617982137.011228,1681917671,1683868891,0,1617982137.391617,1,1617982136.009866,1,0.78,1617982138.012067,-39.41458,-45.46586,0
1617982138.082955,51,0,0,0,0,0,0,0,0,0,1617982138.063264,13.06632995605469,7.247589111328125,-41.84479904174805,279.1272583007812,286.1483459472656,13.6265869140625,26391.211604375,-0.069610595703125,-0.0885009765625,-0.97711181640625,26391.182964375,-0.08157102763652802,-0.02792803756892681,0.085776686668396,26391.209075375,89.13655090332031,25.334228515625,-29.09786987304688,26391.206622375,0.7217976278106625,-0.05794302005575314,0.02937694923586527,-0.1355672180652618,0.06293513625860214,0.09668725728988647,-0.01038229838013649,-0.04866074398159981,0.01588112115859985,2,0.02396372749022924,-0.02191408284933357,0.3525309607194376,0.9352365859413448,-0.05788561701774597,-0.02937272377312183,-0.9978910088539124,13.02634429931641,7.344757080078125,-41.84142684936523,-1,2,26388.846207625,4,2,1617982135.761883,0,0,0,0,0,0,0,0,0,26388.746106,0,-0.3858032,97.30253,1617982137.011228,1681917671,1683868891,0,1617982137.391617,1,1617982136.009866,1,0.78,1617982138.082078,-39.41458,-47.15641,0
1617982138.11322,52,0,0,0,0,0,0,0,0,0,1617982138.103355,13.10579681396484,7.410860061645508,-41.63614654541016,278.8770446777344,285.8981323242188,13.62668323516846,26391.245223375,-0.0459136962890625,-0.07659912109375,-1.023178100585938,26391.216584375,-0.1385826468467712,0.1211490631103516,0.1120040342211723,26391.209075375,89.13655090332031,25.334228515625,-29.09786987304688,26391.206622375,0.7217976278106625,-0.05794302005575314,0.02937694923586527,-0.1355672180652618,0.06293513625860214,0.09668725728988647,-0.01038229838013649,-0.04866074398159981,0.01588112115859985,2,0.02396372749022924,-0.02191408284933357,0.3525309607194376,0.9352365859413448,-0.05788561701774597,-0.02937272377312183,-0.9978910088539124,13.02634429931641,7.344757080078125,-41.84142684936523,-1,2,26388.846207625,4,2,1617982135.761883,0,0,0,0,0,0,0,0,0,26388.746106,0,-0.3858032,97.30253,1617982137.011228,1681917671,1683868891,0,1617982137.391617,1,1617982136.009866,1,0.78,1617982138.082078,-39.41458,-47.15641,0
1617982138.152693,53,0,0,0,0,0,0,0,0,0,1617982138.143168,13.30451965332031,7.639122009277344,-41.62318420410156,278.5609130859375,285.5820007324219,13.62674236297607,26391.278844375,-0.0233612060546875,-0.0411529541015625,-1.070220947265625,26391.250204375,-0.1044254750013351,0.1274202764034271,0.1530228406190872,26391.269051375,89.40533447265625,25.52452087402344,-29.03831481933594,26391.266391375,0.7296439937972279,-0.05151419022144103,0.02196541649167679,-0.06771185994148254,-0.004950191359966993,0.1338406503200531,0.01790956407785416,-0.03630968183279037,-0.06545597314834595,2,0.01944441925051284,-0.0201407736851802,0.3563789152811397,0.9339220655925928,-0.05147898942232132,-0.02196365036070347,-0.9984325170516968,13.30911254882812,7.660989761352539,-41.59468460083008,-1,2,26388.846207625,4,2,1617982135.761883,0,0,0,0,0,0,0,0,0,26388.746106,0,-0.3858032,97.30253,1617982137.011228,1681917671,1683868891,0,1617982137.391617,1,1617982136.009866,1,0.78,1617982138.148173,-39.41458,-48.18408,0
1617982138.182554,54,0,0,0,0,0,0,0,0,0,1617982138.16301,13.33472442626953,7.67730712890625,-41.61598587036133,278.4713439941406,285.492431640625,13.62677669525146,26391.312463375,-0.0421295166015625,-0.0736846923828125,-1.003631591796875,26391.283824375,-0.05513995140790939,-0.1004768088459969,0.0831364318728447,26391.269051375,89.40533447265625,25.52452087402344,-29.03831481933594,26391.266391375,0.7296439937972279,-0.05151419022144103,0.02196541649167679,-0.06771185994148254,-0.004950191359966993,0.1338406503200531,0.01790956407785416,-0.03630968183279037,-0.06545597314834595,2,0.01944441925051284,-0.0201407736851802,0.3563789152811397,0.9339220655925928,-0.05147898942232132,-0.02196365036070347,-0.9984325170516968,13.30911254882812,7.660989761352539,-41.59468460083008,-1,2,26388.846207625,4,2,1617982135.761883,0,0,0,0,0,0,0,0,0,26388.746106,0,-0.3858032,97.30253,1617982137.011228,1681917671,1683868891,0,1617982137.391617,1,1617982136.009866,1,0.78,1617982138.179598,-39.41458,-48.42252,0
1617982138.212375,55,0,0,0,0,0,0,0,0,0,1617982138.202902,13.19313049316406,7.837892532348633,-41.65179061889648,278.3340454101562,285.3551330566406,13.62684631347656,26391.346084375,-0.0392303466796875,-0.067626953125,-1.018814086914062,26391.317445375,-0.1293848901987076,-0.04395733773708344,0.06929465383291245,26391.329032375,89.30178833007812,25.75566101074219,-29.07283020019531,26391.326160375,0.7341477312574541,-0.05681803827172596,0.01941944969186148,-0.1406751424074173,-0.0080769257619977,0.07477951794862747,0.01539484038949013,-0.06119396910071373,0.005781710147857666,2,0.01925281462355969,-0.02302841358389899,0.3584665861441313,0.9330600086216609,-0.05677676573395729,-0.01941822841763496,-0.9981980323791504,13.17800903320312,7.778396606445312,-41.60843658447266,-1,2,26388.846207625,4,2,1617982135.761883,0,0,0,0,0,0,0,0,0,26388.746106,0,-0.3858032,97.30253,1617982137.011228,1681917671,1683868891,0,1617982137.391617,1,1617982136.009866,1,0.78,1617982138.179598,-39.41458,-48.42252,0
1617982138.252251,56,0,0,0,0,0,0,0,0,0,1617982138.242652,13.08649444580078,7.922971725463867,-41.71997451782227,278.2724304199219,285.2935180664062,13.62691593170166,26391.379705375,-0.0433349609375,-0.061065673828125,-0.98541259765625,26391.351065375,-0.0216219387948513,-0.01839418709278107,0.03976232558488846,26391.329032375,89.30178833007812,25.75566101074219,-29.07283020019531,26391.326160375,0.7341477312574541,-0.05681803827172596,0.01941944969186148,-0.1406751424074173,-0.0080769257619977,0.07477951794862747,0.01539484038949013,-0.06119396910071373,0.005781710147857666,2,0.01925281462355969,-0.02302841358389899,0.3584665861441313,0.9330600086216609,-0.05677676573395729,-0.01941822841763496,-0.9981980323791504,13.17800903320312,7.778396606445312,-41.60843658447266,-1,2,26388.846207625,4,2,1617982135.761883,0,0,0,0,0,0,0,0,0,26388.746106,0,-0.3858032,97.30253,1617982137.011228,1681917671,1683868891,0,1617982137.391617,1,1617982136.009866,1,0.78,1617982138.246356,-39.41458,-46.20459,0
1617982138.295157,57,0,0,0,0,0,0,0,0,0,1617982138.282392,12.99775695800781,7.978851318359375,-41.83313369750977,278.312744140625,285.3338317871094,13.62698459625244,26391.413324375,-0.037384033203125,-0.09222412109375,-0.9730072021484375,26391.384685375,0.0601365752518177,0.005086903925985098,-0.03030970320105553,26391.389012375,89.16317749023438,25.82023620605469,-29.18635559082031,26391.385930375,0.7356589326494852,-0.05633510606793896,0.01992332373322583,0.04280989617109299,0.0003692936152219772,-0.03085378743708134,0.01273020356893539,-0.04186084866523743,0.01451188325881958,2,0.01941843706699968,-0.02269800322466409,0.3591686412437834,0.9327946304816649,-0.05629413947463036,-0.01992200501263142,-0.9982154369354248,13.07200622558594,7.899627685546875,-41.70613861083984,-1,2,26388.846207625,4,2,1617982135.761883,0,0,0,0,0,0,0,0,0,26388.746106,0,-0.3858032,97.30253,1617982137.011228,1681917671,1683868891,0,1617982137.391617,1,1617982136.009866,1,0.78,1617982138.281714,-39.41458,-46.60839,0
1617982138.322215,58,0,0,0,0,0,0,0,0,0,1617982138.302456,13.01963043212891,8.020492553710938,-41.84051895141602,278.2790832519531,285.3001708984375,13.62701320648193,26391.446945375,-0.0321197509765625,-0.0691986083984375,-0.98944091796875,26391.418306375,-0.01531876903027296,0.09533024579286575,0.01268650032579899,26391.448991375,89.25453186035156,25.89610290527344,-29.18095397949219,26391.445699375,0.736262695722433,-0.05046121253471302,0.02236840784504471,-0.009176986292004585,0.1925983726978302,0.06173570081591606,0.01812423393130302,-0.05310344696044922,0.0117829442024231,2,0.01950961158986322,-0.01951269873727239,0.3594723131184542,0.9327477459493532,-0.05042718350887299,-0.02236654236912727,-0.9984772801399231,13.04597473144531,8.065044403076172,-41.83513259887695,-1,2,26388.846207625,4,2,1617982135.761883,0,0,0,0,0,0,0,0,0,26388.746106,0,-0.3858032,97.30253,1617982137.011228,1681917671,1683868891,0,1617982137.391617,1,1617982136.009866,1,0.78,1617982138.315111,-39.41458,-44.91657,0
1617982138.355837,59,0,0,0,0,0,0,0,0,0,1617982138.342292,13.25147247314453,7.980649948120117,-41.63887405395508,278.1290283203125,285.1501159667969,13.62706756591797,26391.480564375,-0.015960693359375,-0.037261962890625,-1.0458984375,26391.451925375,0.01184360962361097,0.2149322777986526,0.06607968360185623,26391.448991375,89.25453186035156,25.89610290527344,-29.18095397949219,26391.445699375,0.736262695722433,-0.05046121253471302,0.02236840784504471,-0.009176986292004585,0.1925983726978302,0.06173570081591606,0.01812423393130302,-0.05310344696044922,0.0117829442024231,2,0.01950961158986322,-0.01951269873727239,0.3594723131184542,0.9327477459493532,-0.05042718350887299,-0.02236654236912727,-0.9984772801399231,13.04597473144531,8.065044403076172,-41.83513259887695,-1,2,26388.846207625,4,2,1617982135.761883,0,0,0,0,0,0,0,0,0,26388.746106,0,-0.3858032,97.30253,1617982137.011228,1681917671,1683868891,0,1617982137.391617,1,1617982136.009866,1,0.78,1617982138.315111,-39.41458,-44.91657,0
1617982138.381733,60,0,0,0,0,0,0,0,0,0,1617982138.362275,13.34612274169922,8.072330474853516,-41.77249908447266,278.0616149902344,285.0827026367188,13.62709522247314,26391.514184375,-0.0107879638671875,-0.0301055908203125,-1.082870483398438,26391.485544375,0.01027447544038296,0.1632509678602219,0.05644143745303154,26391.508972375,89.56178283691406,25.96286010742188,-29.06954956054688,26391.505467375,0.7399485849150677,-0.04022628466812243,0.02510051558200942,-0.06122442334890366,0.04655299335718155,0.03760700300335884,0.02831608429551125,-0.005663855001330376,-0.05742859840393066,2,0.01897006650137512,-0.01421244934305146,0.3612545109922567,0.9321660214812344,-0.04020277038216591,-0.02509788051247597,-0.9988762736320496,13.37401580810547,8.101455688476562,-41.73731231689453,-1,2,26388.846207625,4,2,1617982135.761883,0,0,0,0,0,0,0,0,0,26388.746106,0,-0.3858032,97.30253,1617982137.011228,1681917671,1683868891,0,1617982137.391617,1,1617982136.009866,1,0.78,1617982138.358278,-39.41458,-45.29492,0
1617982138.42184,61,0,0,0,0,0,0,0,0,0,1617982138.402123,13.52951049804688,8.003280639648438,-41.59545516967773,278.0150146484375,285.0361022949219,13.62715435028076,26391.547805375,-0.037353515625,-0.0305938720703125,-1.033721923828125,26391.519165375,-0.0838211327791214,-0.06743630021810532,0.01711826585233212,26391.508972375,89.56178283691406,25.96286010742188,-29.06954956054688,26391.505467375,0.7399485849150677,-0.04022628466812243,0.02510051558200942,-0.06122442334890366,0.04655299335718155,0.03760700300335884,0.02831608429551125,-0.005663855001330376,-0.05742859840393066,2,0.01897006650137512,-0.01421244934305146,0.3612545109922567,0.9321660214812344,-0.04020277038216591,-0.02509788051247597,-0.9988762736320496,13.37401580810547,8.101455688476562,-41.73731231689453,-1,2,26388.846207625,4,2,1617982135.761883,0,0,0,0,0,0,0,0,0,26388.746106,0,-0.3858032,97.30253,1617982137.011228,1681917671,1683868891,0,1617982137.391617,1,1617982136.009866,1,0.78,1617982138.416099,-39.41458,-45.33646,0
1617982138.451759,62,0,0,0,0,0,0,0,0,0,1617982138.442048,13.34709167480469,8.381391525268555,-41.66481399536133,278.1653137207031,285.1864013671875,13.62722969055176,26391.581424375,-0.0341644287109375,-0.0545654296875,-1.0123291015625,26391.552785375,-0.109280951321125,-0.1035692691802979,-0.05877969413995743,26391.568950375,89.41131591796875,26.31048583984375,-29.08343505859375,26391.565236375,0.7387414895458539,-0.04468753580140006,0.02113584460022896,-0.08188984543085098,-0.09337927401065826,-0.092069111764431,0.003234986215829849,-0.01074135676026344,-0.0165412425994873,2,0.01791814044781277,-0.01701958878524326,0.3606982238918024,0.9323551731606176,-0.04466268792748451,-0.0211342703551054,-0.9987785220146179,13.44366455078125,8.293426513671875,-41.62754821777344,-1,2,26388.846207625,4,2,1617982135.761883,0,0,0,0,0,0,0,0,0,26388.746106,0,-0.3858032,97.30253,1617982137.011228,1681917671,1683868891,0,1617982137.391617,1,1617982136.009866,1,0.78,1617982138.450557,-39.15427,-39.98248,0
1617982138.481448,63,0,0,0,0,0,0,0,0,0,1617982138.461945,13.17398834228516,8.496072769165039,-41.63708877563477,278.2726135253906,285.293701171875,13.62726879119873,26391.615044375,-0.036407470703125,-0.0759735107421875,-1.002273559570312,26391.586406375,0.04709427431225777,-0.03216832131147385,-0.09841632097959518,26391.568950375,89.41131591796875,26.31048583984375,-29.08343505859375,26391.565236375,0.7387414895458539,-0.04468753580140006,0.02113584460022896,-0.08188984543085098,-0.09337927401065826,-0.092069111764431,0.003234986215829849,-0.01074135676026344,-0.0165412425994873,2,0.01791814044781277,-0.01701958878524326,0.3606982238918024,0.9323551731606176,-0.04466268792748451,-0.0211342703551054,-0.9987785220146179,13.44366455078125,8.293426513671875,-41.62754821777344,-1,2,26388.846207625,4,2,1617982135.761883,0,0,0,0,0,0,0,0,0,26388.746106,0,-0.3858032,97.30253,1617982137.011228,1681917671,1683868891,0,1617982137.391617,1,1617982136.009866,1,0.78,1617982138.450557,-39.15427,-39.98248,0
1617982138.534786,64,0,0,0,0,0,0,0,0,0,1617982138.521764,13.21501922607422,8.49662971496582,-41.60717391967773,278.3486022949219,285.3696899414062,13.62739086151123,26391.648664375,-0.046173095703125,-0.06158447265625,-1.029052734375,26391.620025375,0.1927031427621841,0.1290000528097153,-0.03259096667170525,26391.628922375,89.26383972167969,26.46566772460938,-29.04702758789062,26391.625005375,0.7346010200580058,-0.04248797682111044,0.02627464108131611,0.1775588840246201,0.1455803662538528,-0.02255070582032204,0.004496581852436066,-0.04802343994379044,-0.001430392265319824,2,0.01988536599510457,-0.0151074383442298,0.3587248117489273,0.9331094031876436,-0.04246053472161293,-0.02627161890268326,-0.9987526535987854,13.12714385986328,8.623289108276367,-41.61994552612305,-1,2,26388.846207625,4,2,1617982135.761883,0,0,0,0,0,0,0,0,0,26388.746106,0,-0.3858032,97.30253,1617982137.011228,1681917671,1683868891,0,1617982137.391617,1,1617982136.009866,1,0.78,1617982138.517282,-39.15427,-42.20111,0
1617982138.55136,65,0,0,0,0,0,0,0,0,0,1617982138.541534,13.37689971923828,8.514205932617188,-41.54670333862305,278.3372802734375,285.3583679199219,13.6274299621582,26391.682284375,-0.0296173095703125,-0.026092529296875,-1.084564208984375,26391.653644375,0.1016725674271584,0.1783034205436707,-0.0003739078238140792,26391.628922375,89.26383972167969,26.46566772460938,-29.04702758789062,26391.625005375,0.7346010200580058,-0.04248797682111044,0.02627464108131611,0.1775588840246201,0.1455803662538528,-0.02255070582032204,0.004496581852436066,-0.04802343994379044,-0.001430392265319824,2,0.01988536599510457,-0.0151074383442298,0.3587248117489273,0.9331094031876436,-0.04246053472161293,-0.02627161890268326,-0.9987526535987854,13.12714385986328,8.623289108276367,-41.61994552612305,-1,2,26388.846207625,4,2,1617982135.761883,0,0,0,0,0,0,0,0,0,26388.746106,0,-0.3858032,97.30253,1617982137.011228,1681917671,1683868891,0,1617982137.391617,1,1617982136.009866,1,0.78,1617982138.54664,-39.15427,-42.9585,0
1617982138.600538,66,0,0,0,0,0,0,0,0,0,1617982138.581549,13.6038818359375,8.396337509155273,-41.50834655761719,278.3431396484375,285.3642272949219,13.62751007080078,26391.715905375,-0.0131072998046875,0.00775146484375,-1.09222412109375,26391.720885375,0.003893008921295404,-0.1613484174013138,-0.01866902597248554,26391.688903375,89.60787963867188,26.33927917480469,-28.88642883300781,26391.684774375,0.7348039182402374,-0.03323420719791555,0.03217871932715879,-0.03622904419898987,0.07714185863733292,0.002879867563024163,0.001853987574577332,0.002662651240825653,-0.08134609460830688,2,0.02098057540480484,-0.00972729700655639,0.3588463995614094,0.9331101870686971,-0.03321088850498199,-0.03217316791415215,-0.9989303946495056,13.47248840332031,8.425878524780273,-41.47141647338867,-1,2,26388.846207625,4,2,1617982135.761883,0,0,0,0,0,0,0,0,0,26388.746106,0,-0.3858032,97.30253,1617982137.011228,1681917671,1683868891,0,1617982137.391617,1,1617982136.009866,1,0.78,1617982138.583998,-39.15427,-43.62638,0
1617982138.62126,67,0,0,0,0,0,0,0,0,0,1617982138.601229,13.59471130371094,8.36808967590332,-41.55024719238281,278.3662414550781,285.3873291015625,13.62755298614502,26391.749524375,-0.0354156494140625,0.0345306396484375,-0.997894287109375,26391.720885375,0.003893008921295404,-0.1613484174013138,-0.01866902597248554,26391.748879375,89.46170043945312,26.47087097167969,-28.82147216796875,26391.744543375,0.7338107919125791,-0.03946443923475814,0.03330301842950118,0.04506318271160126,-0.1369451284408569,-0.05145340412855148,0.009601302444934845,0.0594351515173912,-0.02075707912445068,2,0.02261653857340531,-0.01244320064442216,0.3583022633034442,0.9332488375249399,-0.03943232074379921,-0.0332968644797802,-0.998667299747467,13.53833770751953,8.456075668334961,-41.49308013916016,-1,2,26388.846207625,4,2,1617982135.761883,0,0,0,0,0,0,0,0,0,26388.746106,0,-0.3858032,97.30253,1617982137.011228,1681917671,1683868891,0,1617982137.391617,1,1617982136.009866,1,0.78,1617982138.614817,-39.15427,-44.64735,0
1617982138.661854,68,0,0,0,0,0,0,0,0,0,1617982138.641128,13.24398040771484,8.580114364624023,-41.44004440307617,278.5145568847656,285.53564453125,13.6276388168335,26391.783144375,-0.0678253173828125,0.0393829345703125,-0.9484710693359375,26391.754504375,0.09999610483646393,-0.1054896712303162,-0.07093968987464905,26391.748879375,89.46170043945312,26.47087097167969,-28.82147216796875,26391.744543375,0.7338107919125791,-0.03946443923475814,0.03330301842950118,0.04506318271160126,-0.1369451284408569,-0.05145340412855148,0.009601302444934845,0.0594351515173912,-0.02075707912445068,2,0.02261653857340531,-0.01244320064442216,0.3583022633034442,0.9332488375249399,-0.03943232074379921,-0.0332968644797802,-0.998667299747467,13.53833770751953,8.456075668334961,-41.49308013916016,-1,2,26388.846207625,4,2,1617982135.761883,0,0,0,0,0,0,0,0,0,26388.746106,0,-0.3858032,97.30253,1617982137.011228,1681917671,1683868891,0,1617982137.391617,1,1617982136.009866,1,0.78,1617982138.614817,-39.15427,-44.64735,0
1617982138.690838,69,0,0,0,0,0,0,0,0,0,1617982138.681095,13.06446838378906,8.396612167358398,-41.65792465209961,278.7577209472656,285.77880859375,13.62771701812744,26391.816765375,-0.066650390625,0.03985595703125,-0.9609527587890625,26391.788125375,0.2096411138772964,0.09050726145505905,-0.120598316192627,26391.808863375,89.15548706054688,26.28036499023438,-29.06654357910156,26391.804312375,0.7284314913174778,-0.03836565909480605,0.04150651472533676,0.2549572288990021,0.1699593514204025,-0.1143252700567245,-0.03191308304667473,0.07823774218559265,0.05920976400375366,2,0.02621830568347057,-0.01052877871337065,0.355702411286081,0.9341721478062812,-0.03832321241497993,-0.04149459674954414,-0.9984034895896912,13.09368133544922,8.422613143920898,-41.64579772949219,-1,2,26388.846207625,4,2,1617982135.761883,0,0,0,0,0,0,0,0,0,26388.746106,0,-0.3858032,97.30253,1617982137.011228,1681917671,1683868891,0,1617982137.391617,1,1617982136.009866,1,0.78,1617982138.682188,-39.15427,-45.71445,0
1617982138.720587,70,0,0,0,0,0,0,0,0,0,1617982138.700974,13.21373748779297,8.129384994506836,-41.48834609985352,278.8739013671875,285.8949890136719,13.6277494430542,26391.850384375,-0.060394287109375,0.043212890625,-0.97991943359375,26391.821745375,0.286912202835083,0.1819359809160233,-0.1155063584446907,26391.808863375,89.15548706054688,26.28036499023438,-29.06654357910156,26391.804312375,0.7284314913174778,-0.03836565909480605,0.04150651472533676,0.2549572288990021,0.1699593514204025,-0.1143252700567245,-0.03191308304667473,0.07823774218559265,0.05920976400375366,2,0.02621830568347057,-0.01052877871337065,0.355702411286081,0.9341721478062812,-0.03832321241497993,-0.04149459674954414,-0.9984034895896912,13.09368133544922,8.422613143920898,-41.64579772949219,-1,2,26388.846207625,4,2,1617982135.761883,0,0,0,0,0,0,0,0,0,26388.746106,0,-0.3858032,97.30253,1617982137.011228,1681917671,1683868891,0,1617982137.391617,1,1617982136.009866,1,0.78,1617982138.718059,-39.15427,-45.92198,0
1617982138.750488,71,0,0,0,0,0,0,0,0,0,1617982138.740973,13.55094146728516,7.95695686340332,-41.66234970092773,279.1567077636719,286.1777954101562,13.62780570983887,26391.884003375,-0.0570526123046875,0.04327392578125,-0.9619903564453125,26391.855365375,0.2110123783349991,0.06827625632286072,-0.1334142535924911,26391.868845375,89.70135498046875,25.82180786132812,-29.06294250488281,26391.864080375,0.7219261300135379,-0.0303898727606434,0.0519631696311353,0.1548245400190353,0.03496420383453369,-0.1514366418123245,-0.02768508158624172,0.1020191162824631,0.01727789640426636,2,0.0296661764015219,-0.005036421314835308,0.3526461520085318,0.9352728225387481,-0.03034418262541294,-0.05193978920578957,-0.9981890916824341,13.43087768554688,8.030471801757812,-41.67040252685547,-1,2,26388.846207625,4,2,1617982135.761883,0,0,0,0,0,0,0,0,0,26388.746106,0,-0.3858032,97.30253,1617982137.011228,1681917671,1683868891,0,1617982137.391617,1,1617982136.009866,1,0.78,1617982138.746528,-38.48079,-46.14158,0
1617982138.790377,72,0,0,0,0,0,0,0,0,0,1617982138.780444,13.43233489990234,8.065582275390625,-42.57743072509766,279.5273132324219,286.5484008789062,13.62788105010986,26391.917624375,-0.0403900146484375,-0.029449462890625,-0.930908203125,26391.888985375,0.09526819735765457,-0.02513544633984566,-0.1849362999200821,26391.868845375,89.70135498046875,25.82180786132812,-29.06294250488281,26391.864080375,0.7219261300135379,-0.0303898727606434,0.0519631696311353,0.1548245400190353,0.03496420383453369,-0.1514366418123245,-0.02768508158624172,0.1020191162824631,0.01727789640426636,2,0.0296661764015219,-0.005036421314835308,0.3526461520085318,0.9352728225387481,-0.03034418262541294,-0.05193978920578957,-0.9981890916824341,13.43087768554688,8.030471801757812,-41.67040252685547,-1,2,26388.846207625,4,2,1617982135.761883,0,0,0,0,0,0,0,0,0,26388.746106,0,-0.3858032,97.30253,1617982137.011228,1681917671,1683868891,0,1617982137.391617,1,1617982136.009866,1,0.78,1617982138.783142,-38.48079,-44.40072,0
1617982138.834511,73,0,0,0,0,0,0,0,0,0,1617982138.82038,13.49200439453125,7.997482299804688,-42.55753326416016,279.5796203613281,286.6007080078125,13.62796688079834,26391.951244375,-0.0323028564453125,-0.0557098388671875,-0.9389190673828125,26391.922604375,0.1479676216840744,0.02719220519065857,-0.08999833464622498,26391.928828375,89.5128173828125,25.84910583496094,-30.06022644042969,26391.923849375,0.7129826852719039,-0.03337196040396087,0.05338378074574038,0.1393570303916931,0.02789332717657089,-0.07950299233198166,-0.00725497305393219,0.02105554565787315,0.06911015510559082,2,0.03082810517450462,-0.006317834428855092,0.3483981141182919,0.9368183913060875,-0.03331823274493217,-0.05335842818021774,-0.9980193972587585,13.40725708007812,7.976554870605469,-42.5934944152832,-1,2,26388.846207625,4,2,1617982135.761883,0,0,0,0,0,0,0,0,0,26388.746106,0,-0.3858032,97.30253,1617982137.011228,1681917671,1683868891,0,1617982137.391617,1,1617982136.009866,1,0.78,1617982138.816256,-38.48079,-44.84984,0
1617982138.860364,74,0,0,0,0,0,0,0,0,0,1617982138.84049,13.55029296875,7.949600219726562,-42.51496887207031,279.4678649902344,286.4889526367188,13.62800884246826,26391.984865375,-0.028656005859375,-0.0125274658203125,-1.020004272460938,26391.956225375,0.1390441656112671,0.1577499508857727,0.07286462187767029,26391.988809375,89.85630798339844,25.5733642578125,-29.85345458984375,26391.983618375,0.7161695678978977,-0.02979728898357279,0.05374962959054919,-0.03408349677920341,-0.05467976629734039,0.1229341402649879,0.001231089234352112,0.03297177702188492,-0.01850426197052002,2,0.03038393001993553,-0.004531129665548991,0.3499407420393855,0.9362680600649346,-0.02974985353648663,-0.05372375249862671,-0.9981125593185425,13.61374664306641,7.838741302490234,-42.49086761474609,-1,2,26388.846207625,4,2,1617982135.761883,0,0,0,0,0,0,0,0,0,26388.746106,0,-0.3858032,97.30253,1617982137.011228,1681917671,1683868891,0,1617982137.391617,1,1617982136.009866,1,0.78,1617982138.846431,-38.48079,-44.69336,0
1617982138.899323,75,0,0,0,0,0,0,0,0,0,1617982138.880219,13.77505493164062,7.684091567993164,-42.6260871887207,279.1629333496094,286.1840209960938,13.62808895111084,26392.018484375,-0.0375823974609375,0.002716064453125,-0.986541748046875,26391.989845375,-0.07347740978002548,-0.08575591444969177,0.13042351603508,26391.988809375,89.85630798339844,25.5733642578125,-29.85345458984375,26391.983618375,0.7161695678978977,-0.02979728898357279,0.05374962959054919,-0.03408349677920341,-0.05467976629734039,0.1229341402649879,0.001231089234352112,0.03297177702188492,-0.01850426197052002,2,0.03038393001993553,-0.004531129665548991,0.3499407420393855,0.9362680600649346,-0.02974985353648663,-0.05372375249862671,-0.9981125593185425,13.61374664306641,7.838741302490234,-42.49086761474609,-1,2,26388.846207625,4,2,1617982135.761883,0,0,0,0,0,0,0,0,0,26388.746106,0,-0.3858032,97.30253,1617982137.011228,1681917671,1683868891,0,1617982137.391617,1,1617982136.009866,1,0.78,1617982138.88307,-38.48079,-45.40327,0
1617982138.920417,76,0,0,0,0,0,0,0,0,0,1617982138.900186,13.69953155517578,7.683664321899414,-42.68992614746094,278.9652404785156,285.986328125,13.62812805175781,26392.052103375,-0.0574951171875,0.0352630615234375,-1.0032958984375,26392.023464375,-0.2174801230430603,-0.09940727800130844,0.1788547039031982,26392.048784375,89.71568298339844,25.77362060546875,-30.18356323242188,26392.043387375,0.7256380791255089,-0.03675187125315344,0.04297359734414877,-0.09866930544376373,-0.05849664658308029,0.192085936665535,-0.01388855651021004,0.05963820591568947,0.008594989776611328,2,0.02660301961944148,-0.009550701177923067,0.3544002060774407,0.9346666926477484,-0.03670967742800713,-0.04296037182211876,-0.9984021186828613,13.615234375,7.734409332275391,-42.76432800292969,-1,2,26388.846207625,4,2,1617982135.761883,0,0,0,0,0,0,0,0,0,26388.746106,0,-0.3858032,97.30253,1617982137.011228,1681917671,1683868891,0,1617982137.391617,1,1617982136.009866,1,0.78,1617982138.914576,-38.48079,-46.52531,0
1617982138.960726,77,0,0,0,0,0,0,0,0,0,1617982138.940082,13.54093933105469,8.04931640625,-42.57365417480469,278.5970153808594,285.6181030273438,13.62820053100586,26392.085724375,-0.0793304443359375,0.0123291015625,-0.9718475341796875,26392.057085375,0.00646722037345171,-0.02948678657412529,0.156852200627327,26392.048784375,89.71568298339844,25.77362060546875,-30.18356323242188,26392.043387375,0.7256380791255089,-0.03675187125315344,0.04297359734414877,-0.09866930544376373,-0.05849664658308029,0.192085936665535,-0.01388855651021004,0.05963820591568947,0.008594989776611328,2,0.02660301961944148,-0.009550701177923067,0.3544002060774407,0.9346666926477484,-0.03670967742800713,-0.04296037182211876,-0.9984021186828613,13.615234375,7.734409332275391,-42.76432800292969,-1,2,26388.846207625,4,2,1617982135.761883,0,0,0,0,0,0,0,0,0,26388.746106,0,-0.3858032,97.30253,1617982137.011228,1681917671,1683868891,0,1617982137.391617,1,1617982136.009866,1,0.78,1617982138.914576,-38.48079,-46.52531,0
1617982138.98961,78,0,0,0,0,0,0,0,0,0,1617982138.979638,13.60414886474609,7.937709808349609,-42.60813522338867,278.394287109375,285.4153747558594,13.62826061248779,26392.119344375,-0.068603515625,-0.0316619873046875,-0.94708251953125,26392.090704375,-0.0293767973780632,0.008354336023330688,0.08353643864393234,26392.108758375,89.70680236816406,25.85041809082031,-30.03482055664062,26392.103156375,0.7328192080522875,-0.03793355472967432,0.03950236418578333,-0.09755407273769379,0.01297976635396481,0.09040651470422745,-0.03916210308670998,0.02961963415145874,0.03957772254943848,2,0.02522898961037354,-0.0106288031724188,0.3577816732776671,0.9334038776878828,-0.03789487108588219,-0.03949209302663803,-0.9985010623931885,13.60414123535156,7.890933990478516,-42.55059814453125,-1,2,26388.846207625,4,2,1617982135.761883,0,0,0,0,0,0,0,0,0,26389.692473,0,-0.3858032,97.30253,1617982137.011228,1681917671,1683868891,0,1617982137.391617,1,1617982136.009866,1,0.78,1617982138.981229,-38.48079,-47.31016,0
1617982139.019478,79,0,0,0,0,0,0,0,0,0,1617982138.999854,13.62378692626953,8.014822006225586,-42.62818145751953,278.2596130371094,285.2807006835938,13.6282901763916,26392.152963375,-0.0612945556640625,-0.0140838623046875,-0.913116455078125,26392.124325375,-0.1282296031713486,0.1403094381093979,0.1208396032452583,26392.108758375,89.70680236816406,25.85041809082031,-30.03482055664062,26392.103156375,0.7328192080522875,-0.03793355472967432,0.03950236418578333,-0.09755407273769379,0.01297976635396481,0.09040651470422745,-0.03916210308670998,0.02961963415145874,0.03957772254943848,2,0.02522898961037354,-0.0106288031724188,0.3577816732776671,0.9334038776878828,-0.03789487108588219,-0.03949209302663803,-0.9985010623931885,13.60414123535156,7.890933990478516,-42.55059814453125,-1,2,26388.846207625,4,2,1617982135.761883,0,0,0,0,0,0,0,0,0,26389.692473,0,-0.3858032,97.30253,1617982137.011228,1681917671,1683868891,0,1617982137.391617,1,1617982136.009866,1,0.78,1617982139.017919,-38.48079,-47.19608,0
1617982139.059474,80,0,0,0,0,0,0,0,0,0,1617982139.039601,13.9547119140625,8.096969604492188,-42.82596588134766,277.8663940429688,284.8874816894531,13.62836647033691,26392.186584375,-0.0365142822265625,0.0061187744140625,-0.9469146728515625,26392.157945375,0.1004959791898727,0.6387022137641907,0.176243469119072,26392.168742375,90.11660766601562,26.00617980957031,-30.23585510253906,26392.162925375,0.7410512075400278,-0.02347416950741451,0.03170367104203127,0.1583991646766663,0.711180567741394,0.1834303587675095,-0.03588129580020905,0.02254307270050049,0.08944737911224365,2,0.01902387742613202,-0.005199547688217723,0.3618615525608789,0.9320232752558252,-0.02346021868288517,-0.03169836103916168,-0.9992220997810364,13.80579376220703,8.058986663818359,-42.81063842773438,-1,2,26388.846207625,4,2,1617982135.761883,0,0,0,0,0,0,0,0,0,26389.692473,0,-0.3858032,97.30253,1617982137.011228,1681917671,1683868891,0,1617982137.391617,1,1617982136.009866,1,0.78,1617982139.046769,-38.48079,-47.2889,0
1617982139.08929,81,0,0,0,0,0,0,0,0,0,1617982139.079271,15.22655487060547,7.867555618286133,-42.61073684692383,277.6374816894531,284.6585693359375,13.62847805023193,26392.220203375,0.0094146728515625,-0.0252685546875,-1.0882568359375,26392.191564375,0.3639750182628632,0.7000094652175903,0.09244471043348312,26392.168742375,90.11660766601562,26.00617980957031,-30.23585510253906,26392.162925375,0.7410512075400278,-0.02347416950741451,0.03170367104203127,0.1583991646766663,0.711180567741394,0.1834303587675095,-0.03588129580020905,0.02254307270050049,0.08944737911224365,2,0.01902387742613202,-0.005199547688217723,0.3618615525608789,0.9320232752558252,-0.02346021868288517,-0.03169836103916168,-0.9992220997810364,13.80579376220703,8.058986663818359,-42.81063842773438,-1,2,26388.846207625,4,2,1617982135.761883,0,0,0,0,0,0,0,0,0,26389.692473,0,-0.3858032,97.30253,1617982137.011228,1681917671,1683868891,0,1617982137.391617,1,1617982136.009866,1,0.78,1617982139.079329,-38.48079,-48.11997,0
1617982139.137286,82,0,0,0,0,0,0,0,0,0,1617982139.119898,15.88284301757812,7.683452606201172,-42.44650650024414,277.6938781738281,284.7149658203125,13.62858867645264,26392.253824375,-0.012115478515625,-0.05194091796875,-1.06866455078125,26392.225185375,-0.2081737071275711,-0.1333940029144287,-0.02843084186315536,26392.228722375,91.92118835449219,25.60084533691406,-29.95388793945312,26392.222693375,0.7469388575717276,0.007708658796738077,0.04523402662239241,-0.1531782597303391,-0.08808553218841553,-0.02111216075718403,0.0006152582354843616,0.0220099650323391,-0.09358185529708862,2,0.01965012449172807,0.01183871569554738,0.3648330086140804,0.9307903875826374,0.007700697518885136,-0.04521860182285309,-0.9989474415779114,15.55134582519531,7.760702133178711,-42.5287971496582,-1,2,26388.846207625,4,2,1617982135.761883,0,0,0,0,0,0,0,0,0,26389.692473,0,-0.3858032,97.30253,1617982137.011228,1681917671,1683868891,0,1617982137.391617,1,1617982136.009866,1,0.78,1617982139.112827,-38.48079,-46.08243,0
1617982139.159211,83,0,0,0,0,0,0,0,0,0,1617982139.139048,15.69228363037109,8.015979766845703,-42.49428558349609,277.7763977050781,284.7974853515625,13.6286449432373,26392.287444375,-0.0273895263671875,-0.0165557861328125,-1.038253784179688,26392.258804375,-0.8797757625579834,-0.720124363899231,-0.0643124133348465,26392.288708375,91.04649353027344,26.86627197265625,-29.93560791015625,26392.282462375,0.7435758901350932,-0.02705285849689725,0.002170378291341494,-0.9368983507156372,-0.8570308685302734,-0.07848814874887466,0.003978116437792778,-0.03420659154653549,-0.03288471698760986,2,0.005924707216658129,-0.01220770847811349,0.3632346572513449,0.9315989629078456,-0.02704949490725994,-0.002170376479625702,-0.9996317625045776,15.44274139404297,8.389078140258789,-42.46451187133789,-1,2,26388.846207625,4,2,1617982135.761883,0,0,0,0,0,0,0,0,0,26389.692473,0,-0.3858032,97.30253,1617982137.011228,1681917671,1683868891,0,1617982137.391617,1,1617982136.009866,1,0.78,1617982139.14674,-38.48079,-45.64347,0
1617982139.203365,84,0,0,0,0,0,0,0,0,0,1617982139.198937,13.5543212890625,10.54155540466309,-42.76339721679688,278.1156616210938,285.1367492675781,13.62881183624268,26392.321063375,-0.0809783935546875,0.0241241455078125,-1.029586791992188,26392.292424375,-0.8771195411682129,-0.869859516620636,-0.09299811720848083,26392.288708375,91.04649353027344,26.86627197265625,-29.93560791015625,26392.282462375,0.7435758901350932,-0.02705285849689725,0.002170378291341494,-0.9368983507156372,-0.8570308685302734,-0.07848814874887466,0.003978116437792778,-0.03420659154653549,-0.03288471698760986,2,0.005924707216658129,-0.01220770847811349,0.3632346572513449,0.9315989629078456,-0.02704949490725994,-0.002170376479625702,-0.9996317625045776,15.44274139404297,8.389078140258789,-42.46451187133789,-1,2,26388.846207625,4,2,1617982135.761883,0,0,0,0,0,0,0,0,0,26389.692473,0,-0.3858032,97.30253,1617982137.011228,1681917671,1683868891,0,1617982137.391617,1,1617982136.009866,1,0.78,1617982139.183803,-38.48079,-44.99998,0
1617982139.228698,85,0,0,0,0,0,0,0,0,0,1617982139.218804,12.95366668701172,10.90383338928223,-42.7509765625,278.1989440917969,285.2200317382812,13.62886810302734,26392.354687375,-0.1097259521484375,0.062744140625,-0.9912567138671875,26392.326045375,-0.4463481903076172,-0.5254546999931335,-0.03888295218348503,26392.348701375,88.94894409179688,28.86865234375,-30.13768005371094,26392.342234375,0.7379276277751605,-0.06718357515572586,-0.03572412558198883,-0.2816053032875061,-0.2658535540103912,-0.05154483392834663,-0.04259005934000015,0.009693622589111328,-0.007760107517242432,2,-0.004539051156444903,-0.03775818152675621,0.3609476961798349,0.9318104056826131,-0.06709021329879761,0.03571652621030807,-0.9971074461936951,13.22354125976562,10.7260684967041,-42.79393005371094,-1,2,26388.846207625,4,2,1617982135.761883,0,0,0,0,0,0,0,0,0,26389.692473,0,-0.3858032,97.30253,1617982137.011228,1681917671,1683868891,0,1617982137.391617,1,1617982136.009866,1,0.78,1617982139.212101,-38.48079,-43.26071,0
1617982139.260398,86,0,0,0,0,0,0,0,0,0,1617982139.258553,12.49430084228516,11.57821846008301,-42.89949417114258,278.3610534667969,285.3821411132812,13.62897968292236,26392.388307375,-0.080413818359375,0.031829833984375,-0.996551513671875,26392.359667375,-0.09401571005582809,0.01201778091490269,-0.0880342498421669,26392.348701375,88.94894409179688,28.86865234375,-30.13768005371094,26392.342234375,0.7379276277751605,-0.06718357515572586,-0.03572412558198883,-0.2816053032875061,-0.2658535540103912,-0.05154483392834663,-0.04259005934000015,0.009693622589111328,-0.007760107517242432,2,-0.004539051156444903,-0.03775818152675621,0.3609476961798349,0.9318104056826131,-0.06709021329879761,0.03571652621030807,-0.9971074461936951,13.22354125976562,10.7260684967041,-42.79393005371094,-1,2,26388.846207625,4,2,1617982135.761883,0,0,0,0,0,0,0,0,0,26389.692473,0,-0.3858032,97.30253,1617982137.011228,1681917671,1683868891,0,1617982137.391617,1,1617982136.009866,1,0.78,1617982139.212101,-38.48079,-43.26071,0
1617982139.288506,87,0,0,0,0,0,0,0,0,0,1617982139.278407,12.80396270751953,11.57768058776855,-42.80520629882812,278.4249572753906,285.446044921875,13.62903499603271,26392.421926375,-0.0435028076171875,0.0120391845703125,-1.152496337890625,26392.393288375,0.3531181216239929,0.4404255747795105,-0.07362175732851028,26392.408692375,88.99131774902344,29.46034240722656,-30.18817138671875,26392.402003375,0.7338063392966617,-0.05610828898427643,-0.03167157339693404,0.4228376448154449,0.3134816288948059,-0.07658766955137253,-0.002771995961666107,-0.0007367245852947235,-0.07736122608184814,2,-0.004714185803945741,-0.03185845893459606,0.358954919786882,0.9327992135453247,-0.05605072900652885,0.03166627883911133,-0.9979256391525269,12.59103393554688,11.6064281463623,-42.85756301879883,-1,2,26388.846207625,4,2,1617982135.761883,0,0,0,0,0,0,0,0,0,26389.692473,0,-0.3858032,97.30253,1617982137.011228,1681917671,1683868891,0,1617982137.391617,1,1617982136.009866,1,0.78,1617982139.282774,-38.48079,-45.03088,0
1617982139.328384,88,0,0,0,0,0,0,0,0,0,1617982139.318551,13.30863952636719,11.13204574584961,-42.97079086303711,278.6740112304688,285.6950988769531,13.62914657592773,26392.455547375,-0.04132080078125,0.0064544677734375,-1.087203979492188,26392.426907375,0.2814923822879791,-0.01179460808634758,-0.1134775578975677,26392.408692375,88.99131774902344,29.46034240722656,-30.18817138671875,26392.402003375,0.7338063392966617,-0.05610828898427643,-0.03167157339693404,0.4228376448154449,0.3134816288948059,-0.07658766955137253,-0.002771995961666107,-0.0007367245852947235,-0.07736122608184814,2,-0.004714185803945741,-0.03185845893459606,0.358954919786882,0.9327992135453247,-0.05605072900652885,0.03166627883911133,-0.9979256391525269,12.59103393554688,11.6064281463623,-42.85756301879883,-1,2,26388.846207625,4,2,1617982135.761883,0,0,0,0,0,0,0,0,0,26389.692473,0,-0.3858032,97.30253,1617982137.011228,1681917671,1683868891,0,1617982137.391617,1,1617982136.009866,1,0.78,1617982139.318513,-38.48079,-45.62088,0
1617982139.358229,89,0,0,0,0,0,0,0,0,0,1617982139.338715,13.24710845947266,11.11478424072266,-43.06324768066406,278.837158203125,285.8582458496094,13.6292028427124,26392.489166375,-0.0452117919921875,-0.011474609375,-1.035995483398438,26392.460527375,-0.1119672805070877,-0.1754037737846375,-0.145136684179306,26392.468671375,89.34440612792969,29.0296630859375,-30.49739074707031,26392.461772375,0.7273511585501174,-0.05746681170256509,-0.02084606995092016,-0.1214176565408707,-0.180327519774437,-0.141272708773613,0.01713941246271133,-0.01500045508146286,-0.08812558650970459,2,0.0004817222862413678,-0.03055496043976896,0.3558255012841399,0.9340527509123107,-0.0574227087199688,0.02084456011652946,-0.9981323480606079,13.26054382324219,11.06254959106445,-42.98696136474609,-1,2,26388.846207625,4,2,1617982135.761883,0,0,0,0,0,0,0,0,0,26389.692473,0,-0.3858032,97.30253,1617982137.011228,1681917671,1683868891,0,1617982137.391617,1,1617982136.009866,1,0.78,1617982139.350552,-38.48079,-45.66087,0
1617982139.397704,90,0,0,0,0,0,0,0,0,0,1617982139.378065,12.97756195068359,11.37705421447754,-43.2453727722168,279.0072937011719,286.0283813476562,13.62931442260742,26392.522787375,-0.0812835693359375,-0.006011962890625,-0.952362060546875,26392.494148375,0.1495828330516815,-0.03966618701815605,-0.0780913382768631,26392.528655375,89.10285949707031,29.20106506347656,-30.60260009765625,26392.521541375,0.7226738499599739,-0.05996818776667396,-0.01496407097882065,0.2494378983974457,0.1811931729316711,-0.04707617685198784,-0.01549874618649483,-0.02469863370060921,0.03956407308578491,2,0.003602573299072712,-0.03068675733997318,0.3535661582372363,0.934899129911511,-0.05992554128170013,0.01496351230889559,-0.9980906844139099,12.97369384765625,11.2841682434082,-43.21817398071289,-1,2,26388.846207625,4,2,1617982135.761883,0,0,0,0,0,0,0,0,0,26389.692473,0,-0.3858032,97.30253,1617982137.011228,1681917671,1683868891,0,1617982137.391617,1,1617982136.009866,1,0.78,1617982139.379309,-38.48079,-46.31151,0
1617982139.434712,91,0,0,0,0,0,0,0,0,0,1617982139.418173,13.14520263671875,11.20484733581543,-43.29072570800781,279.1123962402344,286.1334838867188,13.62942695617676,26392.556407375,-0.0875701904296875,0.028106689453125,-0.99017333984375,26392.527767375,0.2661992013454437,0.2181839942932129,-0.04937979951500893,26392.528655375,89.10285949707031,29.20106506347656,-30.60260009765625,26392.521541375,0.7226738499599739,-0.05996818776667396,-0.01496407097882065,0.2494378983974457,0.1811931729316711,-0.04707617685198784,-0.01549874618649483,-0.02469863370060921,0.03956407308578491,2,0.003602573299072712,-0.03068675733997318,0.3535661582372363,0.934899129911511,-0.05992554128170013,0.01496351230889559,-0.9980906844139099,12.97369384765625,11.2841682434082,-43.21817398071289,-1,2,26388.846207625,4,2,1617982135.761883,0,0,0,0,0,0,0,0,0,26389.692473,0,-0.3858032,97.30253,1617982137.011228,1681917671,1683868891,0,1617982137.391617,1,1617982136.009866,1,0.78,1617982139.417217,-38.48079,-46.76323,0
1617982139.457931,92,0,0,0,0,0,0,0,0,0,1617982139.438174,13.32194519042969,11.06321716308594,-43.47857284545898,279.2343444824219,286.2554321289062,13.62948226928711,26392.590026375,-0.054107666015625,0.00341796875,-1.068206787109375,26392.561387375,0.2280222475528717,0.3055244982242584,-0.1176962703466415,26392.588636375,89.79890441894531,28.83595275878906,-30.72453308105469,26392.581310375,0.7174575501891608,-0.04448635500061188,-0.001260701967113979,0.1932106018066406,0.179962620139122,-0.1874650716781616,-0.02690905332565308,0.03233913704752922,-0.04853647947311401,2,0.007218503124546118,-0.02104679281165409,0.3510104159751242,0.9361071910051436,-0.04447164759039879,0.001260701683349907,-0.9990098476409912,13.49007415771484,10.99826049804688,-43.45969009399414,-1,2,26388.846207625,4,2,1617982135.761883,0,0,0,0,0,0,0,0,0,26389.692473,0,-0.3858032,97.30253,1617982137.011228,1681917671,1683868891,0,1617982137.391617,1,1617982136.009866,1,0.78,1617982139.446604,-38.48079,-47.49818,0
1617982139.499392,93,0,0,0,0,0,0,0,0,0,1617982139.497633,14.01942443847656,10.89700698852539,-43.51966857910156,279.6557312011719,286.6768188476562,13.6296501159668,26392.623647375,0.006500244140625,-0.04486083984375,-1.016082763671875,26392.595008375,0.1760053783655167,0.08916556090116501,-0.1839040517807007,26392.588636375,89.79890441894531,28.83595275878906,-30.72453308105469,26392.581310375,0.7174575501891608,-0.04448635500061188,-0.001260701967113979,0.1932106018066406,0.179962620139122,-0.1874650716781616,-0.02690905332565308,0.03233913704752922,-0.04853647947311401,2,0.007218503124546118,-0.02104679281165409,0.3510104159751242,0.9361071910051436,-0.04447164759039879,0.001260701683349907,-0.9990098476409912,13.49007415771484,10.99826049804688,-43.45969009399414,-1,2,26388.846207625,4,2,1617982135.761883,0,0,0,0,0,0,0,0,0,26389.692473,0,-0.3858032,97.30253,1617982137.011228,1681917671,1683868891,0,1617982137.391617,1,1617982136.009866,1,0.78,1617982139.483924,-38.48079,-47.95318,0
1617982139.527506,94,0,0,0,0,0,0,0,0,0,1617982139.517996,14.21743774414062,10.83113098144531,-43.65334320068359,279.6279907226562,286.6490783691406,13.62967777252197,26392.657266375,0.0267333984375,-0.008392333984375,-1.016708374023438,26392.628627375,0.06119571253657341,0.06334222108125687,-0.02083896845579147,26392.648618375,90.35626220703125,28.72581481933594,-31.08491516113281,26392.641078375,0.7118226612246271,-0.04061149050635372,0.005303159736047407,0.003445240668952465,-0.01761285774409771,0.02695227973163128,0.06560882180929184,-0.03072288259863853,-0.02249079942703247,2,0.009559804859916721,-0.0181080570539788,0.3483211770514846,0.9371516801711594,-0.0405997559428215,-0.005303134676069021,-0.999161422252655,14.12650299072266,10.82965660095215,-43.58352661132812,-1,2,26388.846207625,4,2,1617982135.761883,0,0,0,0,0,0,0,0,0,26389.692473,0,-0.3858032,97.30253,1617982137.011228,1681917671,1683868891,0,1617982137.391617,1,1617982136.009866,1,0.78,1617982139.512784,-38.48079,-48.48807,0
1617982139.55731,95,0,0,0,0,0,0,0,0,0,1617982139.537622,14.18959045410156,10.87300872802734,-43.6702766418457,279.5355529785156,286.556640625,13.62970447540283,26392.690886375,0.01739501953125,0.012420654296875,-0.954833984375,26392.662248375,0.0164218507707119,-0.09550122171640396,0.0787760391831398,26392.648618375,90.35626220703125,28.72581481933594,-31.08491516113281,26392.641078375,0.7118226612246271,-0.04061149050635372,0.005303159736047407,0.003445240668952465,-0.01761285774409771,0.02695227973163128,0.06560882180929184,-0.03072288259863853,-0.02249079942703247,2,0.009559804859916721,-0.0181080570539788,0.3483211770514846,0.9371516801711594,-0.0405997559428215,-0.005303134676069021,-0.999161422252655,14.12650299072266,10.82965660095215,-43.58352661132812,-1,2,26388.846207625,4,2,1617982135.761883,0,0,0,0,0,0,0,0,0,26389.692473,0,-0.3858032,97.30253,1617982137.011228,1681917671,1683868891,0,1617982137.391617,1,1617982136.009866,1,0.78,1617982139.550573,-38.48079,-47.87278,0
1617982139.597391,96,0,0,0,0,0,0,0,0,0,1617982139.577249,14.25736236572266,10.66860198974609,-43.69021606445312,279.1077575683594,286.1288452148438,13.62975788116455,26392.724507375,0.000244140625,0.033355712890625,-0.9589385986328125,26392.695867375,0.2406685352325439,0.06468258798122406,0.1936533600091934,26392.708601375,90.36672973632812,28.5343017578125,-31.14739990234375,26392.700847375,0.7190330228571433,-0.0426536062171134,0.009474403916762145,0.2704507410526276,0.08050595968961716,0.2044010013341904,0.05679883062839508,0.02628943137824535,0.04260951280593872,2,0.01193589173834956,-0.01829531446409866,0.3516431696402948,0.9358792538784966,-0.04263876006007195,-0.009474262595176697,-0.9990456104278564,14.24047088623047,10.73998641967773,-43.5560188293457,-1,2,26388.846207625,4,2,1617982135.761883,0,0,0,0,0,0,0,0,0,26389.692473,0,-0.3858032,97.30253,1617982137.011228,1681917671,1683868891,0,1617982137.391617,1,1617982136.009866,1,0.78,1617982139.582353,-38.48079,-47.93499,0
1617982139.627019,97,0,0,0,0,0,0,0,0,0,1617982139.617198,14.62885284423828,10.24226760864258,-44.09764099121094,278.5738220214844,285.5949096679688,13.62981128692627,26392.758126375,0.0218353271484375,0.020843505859375,-1.00341796875,26392.729487375,0.3573187291622162,0.1395970433950424,0.2138915210962296,26392.708601375,90.36672973632812,28.5343017578125,-31.14739990234375,26392.700847375,0.7190330228571433,-0.0426536062171134,0.009474403916762145,0.2704507410526276,0.08050595968961716,0.2044010013341904,0.05679883062839508,0.02628943137824535,0.04260951280593872,2,0.01193589173834956,-0.01829531446409866,0.3516431696402948,0.9358792538784966,-0.04263876006007195,-0.009474262595176697,-0.9990456104278564,14.24047088623047,10.73998641967773,-43.5560188293457,-1,2,26388.846207625,4,2,1617982135.761883,0,0,0,0,0,0,0,0,0,26389.692473,0,-0.3858032,97.30253,1617982137.011228,1681917671,1683868891,0,1617982137.391617,1,1617982136.009866,1,0.78,1617982139.61913,-38.48079,-46.56924,0
1617982139.678548,98,0,0,0,0,0,0,0,0,0,1617982139.677072,15.04274749755859,9.24482536315918,-44.34717559814453,277.52099609375,284.5420837402344,13.62993812561035,26392.791747375,0.017425537109375,0.008056640625,-0.9915618896484375,26392.763108375,0.1801141053438187,-0.02379374578595161,0.2670559287071228,26392.768585375,90.94476318359375,27.65269470214844,-31.61131286621094,26392.760616375,0.7331474920214789,-0.03374856066854387,0.02722471046952354,0.1845835149288177,-0.01613736897706985,0.2611619234085083,0.05501557141542435,0.04949916154146194,-0.003289639949798584,2,0.01875297353908154,-0.01087288019640847,0.3581202656857806,0.9334238359605638,-0.03372965008020401,-0.02722134813666344,-0.9990602135658264,14.73104095458984,9.995555877685547,-44.14251708984375,-1,2,26388.846207625,4,2,1617982135.761883,0,0,0,0,0,0,0,0,0,26389.692473,0,-0.3858032,97.30253,1617982137.011228,1681917671,1683868891,0,1617982137.391617,1,1617982136.009866,1,0.78,1617982139.650548,-38.48079,-46.70947,0
1617982139.696871,99,0,0,0,0,0,0,0,0,0,1617982139.677072,15.04274749755859,9.24482536315918,-44.34717559814453,277.52099609375,284.5420837402344,13.62993812561035,26392.825367375,-0.020538330078125,0.01495361328125,-0.94793701171875,26392.796727375,-0.04293867945671082,-0.2111718952655792,0.3422790467739105,26392.828575375,91.04887390136719,27.147705078125,-31.84619140625,26392.820385375,0.752268677284628,-0.04281214751543282,0.02399842090610805,-0.2285325825214386,-0.2577208876609802,0.3571404218673706,0.04518228396773338,0.06810925900936127,0.02986294031143188,2,0.01901941597616871,-0.01550012625027042,0.3669783065854115,0.9299059875939411,-0.04278674721717834,-0.02399611659348011,-0.9987959861755371,15.03501129150391,9.180524826049805,-44.36017990112305,-1,2,26388.846207625,4,2,1617982135.761883,0,0,0,0,0,0,0,0,0,26389.692473,0,-0.3858032,97.30253,1617982137.011228,1681917671,1683868891,0,1617982137.391617,1,1617982136.009866,1,0.78,1617982139.682839,-38.99394,-45.91399,0
1617982139.736938,100,0,0,0,0,0,0,0,0,0,1617982139.717123,14.80787658691406,9.338043212890625,-44.56887054443359,276.7811584472656,283.80224609375,13.63005065917969,26392.858986375,-0.0814361572265625,0.0764007568359375,-0.9413909912109375,26392.830347375,-0.2580456733703613,-0.3109831809997559,0.3425898253917694,26392.828575375,91.04887390136719,27.147705078125,-31.84619140625,26392.820385375,0.752268677284628,-0.04281214751543282,0.02399842090610805,-0.2285325825214386,-0.2577208876609802,0.3571404218673706,0.04518228396773338,0.06810925900936127,0.02986294031143188,2,0.01901941597616871,-0.01550012625027042,0.3669783065854115,0.9299059875939411,-0.04278674721717834,-0.02399611659348011,-0.9987959861755371,15.03501129150391,9.180524826049805,-44.36017990112305,-1,2,26388.846207625,4,2,1617982135.761883,0,0,0,0,0,0,0,0,0,26389.692473,0,-0.3858032,97.30253,1617982137.011228,1681917671,1683868891,0,1617982137.391617,1,1617982136.009866,1,0.78,1617982139.717278,-38.99394,-45.99287,0
1617982139.766405,101,0,0,0,0,0,0,0,0,0,1617982139.756741,14.79187774658203,9.199985504150391,-43.95416259765625,276.1679077148438,283.1889953613281,13.63016223907471,26392.892607375,-0.072723388671875,0.111297607421875,-0.962432861328125,26392.863967375,0.04449503123760223,0.1499961614608765,0.2878008782863617,26392.888559375,90.98298645019531,26.95500183105469,-31.0555419921875,26392.880154375,0.7704250150637448,-0.04660769077832642,0.01700292769824129,0.1498320996761322,0.3257380425930023,0.2400194257497787,-0.03805651143193245,0.1089820712804794,0.07547563314437866,2,0.01663168252389687,-0.01839980097588758,0.375456892098197,0.9265079642004928,-0.04658408463001251,-0.01700210757553577,-0.9987696409225464,14.56952667236328,9.549579620361328,-44.71430587768555,-1,2,26388.846207625,4,2,1617982135.761883,0,0,0,0,0,0,0,0,0,26389.692473,0,-0.3858032,97.30253,1617982137.011228,1681917671,1683868891,0,1617982137.391617,1,1617982136.009866,1,0.78,1617982139.746706,-38.99394,-46.62096,0
1617982139.802491,102,0,0,0,0,0,0,0,0,0,1617982139.796445,15.62323760986328,8.860929489135742,-43.6291389465332,276.00341796875,283.0245056152344,13.63027572631836,26392.926226375,-0.016357421875,0.050201416015625,-1.009536743164062,26392.897587375,0.05969582125544548,0.3947465121746063,0.1239424496889114,26392.888559375,90.98298645019531,26.95500183105469,-31.0555419921875,26392.880154375,0.7704250150637448,-0.04660769077832642,0.01700292769824129,0.1498320996761322,0.3257380425930023,0.2400194257497787,-0.03805651143193245,0.1089820712804794,0.07547563314437866,2,0.01663168252389687,-0.01839980097588758,0.375456892098197,0.9265079642004928,-0.04658408463001251,-0.01700210757553577,-0.9987696409225464,14.56952667236328,9.549579620361328,-44.71430587768555,-1,2,26388.846207625,4,2,1617982135.761883,0,0,0,0,0,0,0,0,0,26389.692473,0,-0.3858032,97.30253,1617982137.011228,1681917671,1683868891,0,1617982137.391617,1,1617982136.009866,1,0.78,1617982139.783825,-38.99394,-44.08933,0
1617982139.826331,103,0,0,0,0,0,0,0,0,0,1617982139.816478,15.92205810546875,9.111915588378906,-43.61045837402344,275.8580017089844,282.8790893554688,13.63033199310303,26392.959846375,0.013275146484375,0.098175048828125,-1.0194091796875,26392.931208375,-0.3385985493659973,0.228035569190979,0.08776739984750748,26392.948538375,92.08346557617188,27.07749938964844,-30.99690246582031,26392.939923375,0.7765367320751595,-0.02879021861943522,0.009750686726309804,-0.3792334794998169,0.1902545392513275,0.1569129228591919,0.04856017231941223,0.05007949844002724,0.03739511966705322,2,0.009961502373712034,-0.01147746573442492,0.3784775379164531,0.9254858088408443,-0.02878487296402454,-0.009750531986355782,-0.9995380640029907,15.77436065673828,8.932228088378906,-43.65406799316406,-1,2,26388.846207625,4,2,1617982135.761883,0,0,0,0,0,0,0,0,0,26389.692473,0,-0.3858032,97.30253,1617982137.011228,1681917671,1683868891,0,1617982137.391617,1,1617982136.009866,1,0.78,1617982139.813841,-38.99394,-44.092,0
1617982139.866057,104,0,0,0,0,0,0,0,0,0,1617982139.856563,16.11095428466797,9.987180709838867,-43.57074356079102,276.115234375,283.1363220214844,13.63044452667236,26392.993467375,-0.0393218994140625,0.0662841796875,-0.97882080078125,26392.964827375,-0.2718549370765686,-0.1048622354865074,-0.05745397135615349,26392.948538375,92.08346557617188,27.07749938964844,-30.99690246582031,26392.939923375,0.7765367320751595,-0.02879021861943522,0.009750686726309804,-0.3792334794998169,0.1902545392513275,0.1569129228591919,0.04856017231941223,0.05007949844002724,0.03739511966705322,2,0.009961502373712034,-0.01147746573442492,0.3784775379164531,0.9254858088408443,-0.02878487296402454,-0.009750531986355782,-0.9995380640029907,15.77436065673828,8.932228088378906,-43.65406799316406,-1,2,26388.846207625,4,2,1617982135.761883,0,0,0,0,0,0,0,0,0,26389.692473,0,-0.3858032,97.30253,1617982137.011228,1681917671,1683868891,0,1617982137.391617,1,1617982136.009866,1,0.78,1617982139.860424,-35.62864,-41.59402,0
1617982139.896078,105,0,0,0,0,0,0,0,0,0,1617982139.876168,15.95822906494141,10.36964797973633,-43.54043579101562,276.4539794921875,283.4750671386719,13.63050079345703,26393.027086375,-0.0171356201171875,0.024658203125,-1.012863159179688,26392.998447375,-0.2810814678668976,-0.0617576390504837,-0.3092215061187744,26393.008529375,92.03330993652344,28.33078002929688,-30.92936706542969,26392.999692375,0.7704756064643444,-0.03308800977047135,-0.0089289233735423,-0.2776468396186829,-0.04926374554634094,-0.3064639568328857,-0.0006413571536540985,0.0569891519844532,0.02353698015213013,2,0.002079875208295135,-0.01700804563217309,0.3757927929284788,0.9265453031561873,-0.03308065235614777,0.008928804658353329,-0.9994127750396729,16.02750396728516,10.20115089416504,-43.57779312133789,-1,2,26388.846207625,4,2,1617982135.761883,0,0,0,0,0,0,0,0,0,26389.692473,0,-0.3858032,97.30253,1617982137.011228,1681917671,1683868891,0,1617982137.391617,1,1617982136.009866,1,0.78,1617982139.883045,-35.62864,-42.01091,0
1617982139.935713,106,0,0,0,0,0,0,0,0,0,1617982139.915981,16.00261688232422,10.84443664550781,-43.63901138305664,276.9258728027344,283.9469604492188,13.63061332702637,26393.060707375,0.00958251953125,-0.0156097412109375,-0.9982147216796875,26393.032068375,0.1712899953126907,0.2332689464092255,-0.2200412899255753,26393.068512375,92.47483825683594,28.84037780761719,-30.93426513671875,26393.059460375,0.7579609822960489,-0.02148389834198366,-0.003575385179041528,0.2112429440021515,0.3568796813488007,-0.1314207315444946,0.02793648838996887,-0.02692133747041225,0.005347549915313721,2,0.00231340790166483,-0.01064087733853022,0.3699693863303098,0.9289801753829811,-0.02148210816085339,0.003575377631932497,-0.9997628331184387,16.17532348632812,10.83540153503418,-43.57778167724609,-1,2,26388.846207625,4,2,1617982135.761883,0,0,0,0,0,0,0,0,0,26390.638971,0,-0.3699341,97.30235,1617982137.011228,1681917671,1683868891,0,1617982137.391617,1,1617982136.009866,1,0.78,1617982139.919141,-35.62864,-43.02377,0
1617982139.976223,107,0,0,0,0,0,0,0,0,0,1617982139.956039,16.68464660644531,10.68010520935059,-43.56930923461914,277.1995239257812,284.2206115722656,13.6307258605957,26393.094326375,0.0151519775390625,0.0081329345703125,-1.038650512695312,26393.065687375,0.1841866225004196,0.384794294834137,-0.1230550855398178,26393.068512375,92.47483825683594,28.84037780761719,-30.93426513671875,26393.059460375,0.7579609822960489,-0.02148389834198366,-0.003575385179041528,0.2112429440021515,0.3568796813488007,-0.1314207315444946,0.02793648838996887,-0.02692133747041225,0.005347549915313721,2,0.00231340790166483,-0.01064087733853022,0.3699693863303098,0.9289801753829811,-0.02148210816085339,0.003575377631932497,-0.9997628331184387,16.17532348632812,10.83540153503418,-43.57778167724609,-1,2,26388.846207625,4,2,1617982135.761883,0,0,0,0,0,0,0,0,0,26390.638971,0,-0.3699341,97.30235,1617982137.011228,1681917671,1683868891,0,1617982137.391617,1,1617982136.009866,1,0.78,1617982139.950662,-35.62864,-43.30872,0
1617982139.995651,108,0,0,0,0,0,0,0,0,0,1617982139.9758,17.12136077880859,10.64377212524414,-43.39716720581055,277.322998046875,284.3440856933594,13.63078212738037,26393.127946375,0.0140533447265625,0.00274658203125,-1.066299438476562,26393.099306375,-0.1234553605318069,0.1661575436592102,-0.1089256852865219,26393.128495375,93.39106750488281,28.82525634765625,-30.76513671875,26393.119229375,0.7514311855901117,-0.008602134352242651,-0.004001397775948739,-0.07477357238531113,-0.08621539175510406,-0.1024897247552872,0.01717731356620789,0.008175114169716835,-0.1113273501396179,2,-0.0002829039992359287,-0.004735152859283463,0.366942175595091,0.9302316609246472,-0.00860195979475975,0.004001386929303408,-0.9999549984931946,17.28493499755859,10.74241065979004,-43.32117080688477,-1,2,26388.846207625,4,2,1617982135.761883,0,0,0,0,0,0,0,0,0,26390.638971,0,-0.3699341,97.30235,1617982137.011228,1681917671,1683868891,0,1617982137.391617,1,1617982136.009866,1,0.78,1617982139.97926,-35.62864,-44.42435,0
1617982140.035371,109,0,0,0,0,0,0,0,0,0,1617982140.015717,17.31076812744141,11.00749206542969,-43.42461395263672,277.5794677734375,284.6005554199219,13.63089466094971,26393.161567375,0.0196075439453125,0.0065155029296875,-0.9792327880859375,26393.132927375,0.04282123222947121,-0.1649066656827927,-0.108164556324482,26393.128495375,93.39106750488281,28.82525634765625,-30.76513671875,26393.119229375,0.7514311855901117,-0.008602134352242651,-0.004001397775948739,-0.07477357238531113,-0.08621539175510406,-0.1024897247552872,0.01717731356620789,0.008175114169716835,-0.1113273501396179,2,-0.0002829039992359287,-0.004735152859283463,0.366942175595091,0.9302316609246472,-0.00860195979475975,0.004001386929303408,-0.9999549984931946,17.28493499755859,10.74241065979004,-43.32117080688477,-1,2,26388.846207625,4,2,1617982135.761883,0,0,0,0,0,0,0,0,0,26390.638971,0,-0.3699341,97.30235,1617982137.011228,1681917671,1683868891,0,1617982137.391617,1,1617982136.009866,1,0.78,1617982140.015861,-35.62864,-44.44353,0
1617982140.065459,110,0,0,0,0,0,0,0,0,0,1617982140.055605,17.0870361328125,11.13135528564453,-43.78480529785156,277.85888671875,284.8799743652344,13.63100814819336,26393.195186375,0.0391845703125,-0.177947998046875,-0.8281097412109375,26393.166547375,-0.07798348367214203,-0.03154008463025093,-0.1785292625427246,26393.188478375,93.1732177734375,29.0562744140625,-31.24064636230469,26393.178998375,0.743240802735411,-0.01446380814773373,-0.005659585276474717,-0.2810142338275909,0.3128896653652191,-0.07043075561523438,0.01868966966867447,-0.056013572961092,0.1383529305458069,2,-1.050266978908435e-05,-0.007765711159746208,0.3631337924001223,0.9317047505101907,-0.01446307264268398,0.005659555085003376,-0.9998793601989746,17.12843322753906,11.05388450622559,-43.65398406982422,-1,2,26388.846207625,4,2,1617982135.761883,0,0,0,0,0,0,0,0,0,26390.638971,0,-0.3699341,97.30235,1617982137.011228,1681917671,1683868891,0,1617982137.391617,1,1617982136.009866,1,0.78,1617982140.046461,-35.62864,-44.8112,0
1617982140.100195,111,0,0,0,0,0,0,0,0,0,1617982140.095514,17.44753265380859,11.61929893493652,-43.70671081542969,277.5339050292969,284.5549926757812,13.6311206817627,26393.228806375,0.03436279296875,0.04534912109375,-1.086135864257812,26393.200168375,-0.2095399051904678,0.5547875761985779,0.1782592236995697,26393.188478375,93.1732177734375,29.0562744140625,-31.24064636230469,26393.178998375,0.743240802735411,-0.01446380814773373,-0.005659585276474717,-0.2810142338275909,0.3128896653652191,-0.07043075561523438,0.01868966966867447,-0.056013572961092,0.1383529305458069,2,-1.050266978908435e-05,-0.007765711159746208,0.3631337924001223,0.9317047505101907,-0.01446307264268398,0.005659555085003376,-0.9998793601989746,17.12843322753906,11.05388450622559,-43.65398406982422,-1,2,26388.846207625,4,2,1617982135.761883,0,0,0,0,0,0,0,0,0,26390.638971,0,-0.3699341,97.30235,1617982137.011228,1681917671,1683868891,0,1617982137.391617,1,1617982136.009866,1,0.78,1617982140.083789,-35.62864,-45.67231,0
1617982140.135293,112,0,0,0,0,0,0,0,0,0,1617982140.115273,17.9249267578125,11.59891891479492,-43.70504379272461,277.588134765625,284.6092224121094,13.63117694854736,26393.262427375,0.0275115966796875,-0.0406036376953125,-1.032318115234375,26393.233787375,0.358226865530014,0.1205953881144524,-0.02456526458263397,26393.248463375,94.18185424804688,29.24632263183594,-31.04052734375,26393.238767375,0.7485494798648766,0.004037637444945688,-0.006231914759716668,0.3547082543373108,0.0491349920630455,-0.05204445868730545,0.005483851302415133,0.0407804399728775,-0.05569159984588623,2,-0.003638309533689683,0.0007398693374192791,0.3655891937442962,0.9307689228017731,0.00403754785656929,0.006231874227523804,-0.999972403049469,17.71373748779297,11.65006065368652,-43.67618942260742,-1,2,26388.846207625,4,2,1617982135.761883,0,0,0,0,0,0,0,0,0,26390.638971,0,-0.3699341,97.30235,1617982137.011228,1681917671,1683868891,0,1617982137.391617,1,1617982136.009866,1,0.78,1617982140.114355,-35.62864,-46.04187,0
1617982140.165108,113,0,0,0,0,0,0,0,0,0,1617982140.155249,18.15869903564453,11.09876251220703,-43.74111175537109,277.4994812011719,284.5205688476562,13.6312894821167,26393.296046375,-0.0145111083984375,-0.1618804931640625,-0.9193267822265625,26393.267407375,0.2093604058027267,0.05145120620727539,-0.06368230283260345,26393.248463375,94.18185424804688,29.24632263183594,-31.04052734375,26393.238767375,0.7485494798648766,0.004037637444945688,-0.006231914759716668,0.3547082543373108,0.0491349920630455,-0.05204445868730545,0.005483851302415133,0.0407804399728775,-0.05569159984588623,2,-0.003638309533689683,0.0007398693374192791,0.3655891937442962,0.9307689228017731,0.00403754785656929,0.006231874227523804,-0.999972403049469,17.71373748779297,11.65006065368652,-43.67618942260742,-1,2,26388.846207625,4,2,1617982135.761883,0,0,0,0,0,0,0,0,0,26390.638971,0,-0.3699341,97.30235,1617982137.011228,1681917671,1683868891,0,1617982137.391617,1,1617982136.009866,1,0.78,1617982140.161738,-35.62864,-46.77382,0
1617982140.219235,114,0,0,0,0,0,0,0,0,0,1617982140.215185,18.72553253173828,10.12345504760742,-43.88803863525391,277.1999816894531,284.2210693359375,13.63145923614502,26393.329663625,-0.007080078125,0.023345947265625,-1.045700073242188,26393.334643625,0.05639722943305969,0.1343133300542831,0.005792375188320875,26393.308444375,94.4476318359375,28.42709350585938,-31.25822448730469,26393.298536375,0.7518329532238304,0.008417269932291237,0.006780204496426227,0.2150910347700119,0.3030020594596863,0.225095197558403,-0.006357125006616116,-0.1907448917627335,0.08937335014343262,2,0.001608260447734819,0.005159296540030337,0.3671330586420379,0.9301527975154751,0.008416976779699326,-0.006780152674764395,-0.9999415874481201,18.09939575195312,10.96593475341797,-43.8008918762207,-1,2,26388.846207625,4,2,1617982135.761883,0,0,0,0,0,0,0,0,0,26390.638971,0,-0.3699341,97.30235,1617982137.011228,1681917671,1683868891,0,1617982137.391617,1,1617982136.009866,1,0.78,1617982140.219124,-35.62864,-44.41054,0
1617982140.235572,115,0,0,0,0,0,0,0,0,0,1617982140.215185,18.72553253173828,10.12345504760742,-43.88803863525391,277.1999816894531,284.2210693359375,13.63145923614502,26393.363282625,-0.0131988525390625,-0.001068115234375,-1.022979736328125,26393.334643625,0.05639722943305969,0.1343133300542831,0.005792375188320875,26393.308444375,94.4476318359375,28.42709350585938,-31.25822448730469,26393.358301625,0.7545344620909211,0.01751360695144774,0.01334614941749596,-0.1824307292699814,0.05842116102576256,-0.02312137186527252,-0.005945073440670967,-0.01207540463656187,-0.07143992185592651,2,0.002977776702692209,0.01059881621415504,0.3684132337525342,0.9295970552756079,0.01751115173101425,-0.01334575284272432,-0.9997575879096985,18.88039398193359,9.997676849365234,-43.99094772338867,-1,2,26388.846207625,4,2,1617982135.761883,0,0,0,0,0,0,0,0,0,26390.638971,0,-0.3699341,97.30235,1617982137.011228,1681917671,1683868891,0,1617982137.391617,1,1617982136.009866,1,0.78,1617982140.219124,-35.62864,-44.41054,0
1617982140.275735,116,0,0,0,0,0,0,0,0,0,1617982140.255608,19.17604827880859,9.917888641357422,-44.00844955444336,277.3032531738281,284.3243408203125,13.63157272338867,26393.396902625,-0.006683349609375,0.0695953369140625,-1.042633056640625,26393.368262625,-0.1368883401155472,0.2323805093765259,-0.05079793184995651,26393.368419625,95.22848510742188,27.88983154296875,-31.37815856933594,26393.358301625,0.7545344620909211,0.01751360695144774,0.01334614941749596,-0.1824307292699814,0.05842116102576256,-0.02312137186527252,-0.005945073440670967,-0.01207540463656187,-0.07143992185592651,2,0.002977776702692209,0.01059881621415504,0.3684132337525342,0.9295970552756079,0.01751115173101425,-0.01334575284272432,-0.9997575879096985,18.88039398193359,9.997676849365234,-43.99094772338867,-1,2,26388.846207625,4,2,1617982135.761883,0,0,0,0,0,0,0,0,0,26390.638971,0,-0.3699341,97.30235,1617982137.011228,1681917671,1683868891,0,1617982137.391617,1,1617982136.009866,1,0.78,1617982140.25037,-35.62864,-44.44008,0
1617982140.30485,117,0,0,0,0,0,0,0,0,0,1617982140.295087,19.59144592285156,9.668102264404297,-43.87124633789062,277.6883544921875,284.7094421386719,13.63168525695801,26393.430523625,0.0153045654296875,-0.0131683349609375,-0.98095703125,26393.401883625,0.2575148940086365,-0.03675534948706627,-0.1661253273487091,26393.428407625,95.67500305175781,27.46142578125,-31.2174072265625,26393.418070625,0.7480715337195672,0.02206581976051088,0.01803558772793812,0.2732937037944794,-0.6045128107070923,-0.1779258400201797,-0.001644263043999672,0.05544914305210114,-0.05761122703552246,2,0.004362777076351364,0.01356410463548768,0.3654306446628934,0.9307295356438698,0.02206044085323811,-0.01803461089730263,-0.99959397315979,19.50369262695312,9.846923828125,-43.87393569946289,-1,2,26388.846207625,4,2,1617982135.761883,0,0,0,0,0,0,0,0,0,26390.638971,0,-0.3699341,97.30235,1617982137.011228,1681917671,1683868891,0,1617982137.391617,1,1617982136.009866,1,0.78,1617982140.279358,-35.62864,-44.98198,0
1617982140.339217,118,0,0,0,0,0,0,0,0,0,1617982140.336928,19.24074554443359,9.623329162597656,-44.04428863525391,277.9192504882812,284.9403381347656,13.63179969787598,26393.464142625,0.0367279052734375,-0.0808868408203125,-0.929473876953125,26393.435503625,0.1072393730282784,-0.289000391960144,-0.1805274337530136,26393.428407625,95.67500305175781,27.46142578125,-31.2174072265625,26393.418070625,0.7480715337195672,0.02206581976051088,0.01803558772793812,0.2732937037944794,-0.6045128107070923,-0.1779258400201797,-0.001644263043999672,0.05544914305210114,-0.05761122703552246,2,0.004362777076351364,0.01356410463548768,0.3654306446628934,0.9307295356438698,0.02206044085323811,-0.01803461089730263,-0.99959397315979,19.50369262695312,9.846923828125,-43.87393569946289,-1,2,26388.846207625,4,2,1617982135.761883,0,0,0,0,0,0,0,0,0,26390.638971,0,-0.3699341,97.30235,1617982137.011228,1681917671,1683868891,0,1617982137.391617,1,1617982136.009866,1,0.78,1617982140.317175,-35.62864,-46.27448,0
1617982140.364151,119,0,0,0,0,0,0,0,0,0,1617982140.354535,19.07999420166016,9.538707733154297,-44.14262771606445,278.0279235839844,285.0490112304688,13.63185596466064,26393.497762625,-0.0083160400390625,0.0699615478515625,-1.009017944335938,26393.469124625,0.02415300719439983,-0.01955932006239891,-0.02597487531602383,26393.488392625,95.21720886230469,27.38308715820312,-31.39154052734375,26393.477839625,0.7415039821359253,0.01040234451474184,0.0217451750735107,0.09283709526062012,0.04212253913283348,-0.09369155764579773,0.03786376863718033,-0.006271690130233765,0.03842109441757202,2,0.008249163957939801,0.008786655762470457,0.3623427954029216,0.9319670853568364,0.01039969734847546,-0.02174346148967743,-0.9997094869613647,19.16493225097656,9.552494049072266,-44.10313034057617,-1,2,26388.846207625,4,2,1617982135.761883,0,0,0,0,0,0,0,0,0,26390.638971,0,-0.3699341,97.30235,1617982137.011228,1681917671,1683868891,0,1617982137.391617,1,1617982136.009866,1,0.78,1617982140.346144,-20.77145,-42.45438,0
