loggingTime(txt),locationTimestamp_since1970(s),locationLatitude(WGS84),locationLongitude(WGS84),locationAltitude(m),locationSpeed(m/s),locationCourse(°),locationVerticalAccuracy(m),locationHorizontalAccuracy(m),locationFloor(Z),accelerometerTimestamp_sinceReboot(s),accelerometerAccelerationX(G),accelerometerAccelerationY(G),accelerometerAccelerationZ(G),motionTimestamp_sinceReboot(s),motionYaw(rad),motionRoll(rad),motionPitch(rad),motionRotationRateX(rad/s),motionRotationRateY(rad/s),motionRotationRateZ(rad/s),motionUserAccelerationX(G),motionUserAccelerationY(G),motionUserAccelerationZ(G),motionAttitudeReferenceFrame(txt),motionQuaternionX(R),motionQuaternionY(R),motionQuaternionZ(R),motionQuaternionW(R),motionGravityX(G),motionGravityY(G),motionGravityZ(G),motionMagneticFieldX(µT),motionMagneticFieldY(µT),motionMagneticFieldZ(µT),motionHeading(°),motionMagneticFieldCalibrationAccuracy(Z),activityTimestamp_sinceReboot(s),activity(txt),activityActivityConfidence(Z),activityActivityStartDate(txt),pedometerStartDate(txt),pedometerNumberofSteps(N),pedometerAverageActivePace(s/m),pedometerCurrentPace(s/m),pedometerCurrentCadence(steps/s),pedometerDistance(m),pedometerFloorAscended(N),pedometerFloorDescended(N),pedometerEndDate(txt),altimeterTimestamp_sinceReboot(s),altimeterReset(bool),altimeterRelativeAltitude(m),altimeterPressure(kPa),batteryState(N),batteryLevel(R)
2021-04-05 21:48:34.435 -0400,0,0,0,0,0,0,0,0,0,16007.200052875,-0.0720977783203125,-0.2714385986328125,-0.9520111083984375,16007.195017875,0.9300754327082603,-0.08113617920610872,0.2681045553332699,0.05946776270866394,-0.03153308480978012,0.1125772297382355,0.01017379760742188,0.0004082918167114258,0.001950323581695557,XArbitraryZVertical,0.1373845909834487,0.02396262936956012,0.4392226319198729,0.8874879060617484,-0.07815175503492355,-0.2649041712284088,-0.9611025452613831,0,0,0,-1,-1,15999.65754925,unknown,2,2021-04-05 21:48:26.891 -0400,2021-04-05 19:23:45.401 -0400,774,1.414659,0,0,572.4493,0,0,2021-04-05 21:48:26.891 -0400,639366509.4600202,0,-3.09,98.20272,1,0.64
2021-04-05 21:48:34.473 -0400,0,0,0,0,0,0,0,0,0,16007.235239875,-0.092132568359375,-0.2665252685546875,-0.949493408203125,16007.225199875,0.9331996239617574,-0.08234666562472967,0.2682802677074201,-0.01826393604278564,-0.02673207968473434,0.09118189662694931,-0.01132598519325256,-0.01405543088912964,0.01497697830200195,XArbitraryZVertical,0.1376911175535686,0.02368003859685388,0.4405167454910495,0.8868063256870871,-0.07931126654148102,-0.2650736272335052,-0.9609608054161072,0,0,0,-1,-1,15999.65754925,unknown,2,2021-04-05 21:48:26.891 -0400,2021-04-05 19:23:45.401 -0400,774,1.414659,0,0,572.4493,0,0,2021-04-05 21:48:26.891 -0400,639366509.4600202,0,-3.09,98.20272,1,0.64
2021-04-05 21:48:34.505 -0400,0,0,0,0,0,0,0,0,0,16007.270456875,-0.080810546875,-0.2663421630859375,-0.9524993896484375,16007.255350875,0.934427228961922,-0.08170283096088007,0.2658221472200006,-0.1066189333796501,0.09308318793773651,0.01386748626828194,-0.01396694779396057,-0.01221498847007751,0.0007512569427490234,XArbitraryZVertical,0.1364509112190605,0.02349578887906509,0.4412233344394574,0.8866516349006435,-0.07874549180269241,-0.262702614068985,-0.9616581797599792,0,0,0,-1,-1,15999.65754925,unknown,2,2021-04-05 21:48:26.891 -0400,2021-04-05 19:23:45.401 -0400,774,1.414659,0,0,572.4493,0,0,2021-04-05 21:48:26.891 -0400,639366509.4600202,0,-3.09,98.20272,1,0.64
2021-04-05 21:48:34.541 -0400,0,0,0,0,0,0,0,0,0,16007.305643875,-0.0774688720703125,-0.271148681640625,-0.954010009765625,16007.285532875,0.9347335207721856,-0.07891760057457409,0.2640683426969964,-0.03160194680094719,0.05260980129241943,0.005855100695043802,-0.005424797534942627,-0.0005103647708892822,0.008870959281921387,XArbitraryZVertical,0.1350591909789088,0.02435593672911073,0.4416314505191519,0.8866383770983963,-0.07610295712947845,-0.2610100209712982,-0.9623315930366516,0,0,0,-1,-1,15999.65754925,unknown,2,2021-04-05 21:48:26.891 -0400,2021-04-05 19:23:45.401 -0400,774,1.414659,0,0,572.4493,0,0,2021-04-05 21:48:26.891 -0400,639366509.4600202,0,-3.09,98.20272,1,0.64
2021-04-05 21:48:34.576 -0400,0,0,0,0,0,0,0,0,0,16007.340830875,-0.07513427734375,-0.2675628662109375,-0.9633026123046875,16007.315683875,0.9336001385582492,-0.07815486226596939,0.2624070540458049,-0.07882403582334518,-0.003174330573529005,-0.03938263654708862,-0.002066239714622498,-0.01174277067184448,0.008810341358184814,XArbitraryZVertical,0.134171860643969,0.02424353961096462,0.4412581916458666,0.8869618255432293,-0.07540267705917358,-0.2594059705734253,-0.9628203511238098,0,0,0,-1,-1,15999.65754925,unknown,2,2021-04-05 21:48:26.891 -0400,2021-04-05 19:23:45.401 -0400,774,1.414659,0,0,572.4493,0,0,2021-04-05 21:48:26.891 -0400,639366509.4600202,0,-3.09,98.20272,1,0.64
2021-04-05 21:48:34.612 -0400,0,0,0,0,0,0,0,0,0,16007.376047875,-0.057159423828125,-0.2583770751953125,-0.984375,16007.376047875,0.9332224299307132,-0.08000949479426696,0.2615012307365231,-0.06343887001276016,-0.08306565880775452,0.01597689464688301,0.02886708080768585,-0.003691285848617554,-0.02005851268768311,XArbitraryZVertical,0.1341857606152914,0.02319165970890869,0.4410086819326103,0.8871119720294114,-0.07720696926116943,-0.2585310339927673,-0.9629126787185669,0,0,0,-1,-1,15999.65754925,unknown,2,2021-04-05 21:48:26.891 -0400,2021-04-05 19:23:45.401 -0400,774,1.414659,0,0,572.4493,0,0,2021-04-05 21:48:26.891 -0400,639366509.4600202,0,-3.09,98.20272,1,0.64
2021-04-05 21:48:34.646 -0400,0,0,0,0,0,0,0,0,0,16007.411234875,-0.063568115234375,-0.2594757080078125,-0.9803009033203125,16007.406198875,0.9334933531154493,-0.08114027792830501,0.2604645614203261,-0.0350286141037941,0.009238970465958118,0.004906582646071911,0.01349806785583496,-0.01253587007522583,-0.02285528182983398,XArbitraryZVertical,0.1339746553657024,0.02247478529681059,0.4411018430387528,0.8871160465169087,-0.07831744849681854,-0.2575294673442841,-0.9630913734436035,0,0,0,-1,-1,15999.65754925,unknown,2,2021-04-05 21:48:26.891 -0400,2021-04-05 19:23:45.401 -0400,774,1.414659,0,0,572.4493,0,0,2021-04-05 21:48:26.891 -0400,639366514.6142819,0,-3,98.20219,1,0.64
2021-04-05 21:48:34.681 -0400,0,0,0,0,0,0,0,0,0,16007.446421875,-0.0444793701171875,-0.25408935546875,-0.9993743896484375,16007.436380875,0.9336355341845368,-0.08161098687217198,0.2590610461419569,-0.05739317461848259,-0.05024586617946625,0.01993686333298683,0.02501288801431656,-0.0001593828201293945,-0.01896238327026367,XArbitraryZVertical,0.1334576754596838,0.02195931621527053,0.4411995849598896,0.8871582690378953,-0.07880016416311264,-0.2561730444431305,-0.9634136557579041,0,0,0,-1,-1,15999.65754925,unknown,2,2021-04-05 21:48:26.891 -0400,2021-04-05 19:23:45.401 -0400,774,1.414659,0,0,572.4493,0,0,2021-04-05 21:48:26.891 -0400,639366514.6142819,0,-3,98.20219,1,0.64
2021-04-05 21:48:34.717 -0400,0,0,0,0,0,0,0,0,0,16007.481638875,-0.06365966796875,-0.2569580078125,-0.974822998046875,16007.466532875,0.935139627309085,-0.08204072916297026,0.2593397233233419,0.0545760840177536,0.05939552932977676,0.08056262880563736,0.01899708807468414,0.004031479358673096,-0.02500319480895996,XArbitraryZVertical,0.1336589689780002,0.02193200649455102,0.4418247966608584,0.8868174142345968,-0.07920832186937332,-0.2564423978328705,-0.9633085131645203,0,0,0,-1,-1,15999.65754925,unknown,2,2021-04-05 21:48:26.891 -0400,2021-04-05 19:23:45.401 -0400,774,1.414659,0,0,572.4493,0,0,2021-04-05 21:48:26.891 -0400,639366514.6142819,0,-3,98.20219,1,0.64
2021-04-05 21:48:34.752 -0400,0,0,0,0,0,0,0,0,0,16007.516825875,-0.0721435546875,-0.251556396484375,-0.94989013671875,16007.496714875,0.9371377021030469,-0.08083564641924479,0.2610030333194168,0.08292506635189056,0.05845854803919792,0.05824195966124535,0.01188120990991592,-0.0004494190216064453,-0.009542107582092285,XArbitraryZVertical,0.134103397022729,0.02297560052788768,0.4427125819224766,0.8862809375882343,-0.07801284641027451,-0.2580497562885284,-0.9629768133163452,0,0,0,-1,-1,15999.65754925,unknown,2,2021-04-05 21:48:26.891 -0400,2021-04-05 19:23:45.401 -0400,774,1.414659,0,0,572.4493,0,0,2021-04-05 21:48:26.891 -0400,639366514.6142819,0,-3,98.20219,1,0.64
2021-04-05 21:48:34.787 -0400,0,0,0,0,0,0,0,0,0,16007.552011875,-0.0830535888671875,-0.256744384765625,-0.936431884765625,16007.526865875,0.9385365355733442,-0.07889481211136139,0.2628030207294545,0.0046698865480721,0.008631810545921326,0.02773746103048325,0.003963395953178406,0.008231908082962036,0.01277166604995728,XArbitraryZVertical,0.1344501313160135,0.02433648319205905,0.4433777770735738,0.8858594468640668,-0.07610699534416199,-0.2597883641719818,-0.9626618027687073,0,0,0,-1,-1,15999.65754925,unknown,2,2021-04-05 21:48:26.891 -0400,2021-04-05 19:23:45.401 -0400,774,1.414659,0,0,572.4493,0,0,2021-04-05 21:48:26.891 -0400,639366514.6142819,0,-3,98.20219,1,0.64
2021-04-05 21:48:34.846 -0400,0,0,0,0,0,0,0,0,0,16007.587229875,-0.0843048095703125,-0.2561798095703125,-0.943634033203125,16007.557047875,0.9392183285547148,-0.07983263219444883,0.2619967090345893,0.01783359050750732,-0.07837191969156265,0.02334815822541714,-0.004608124494552612,0.003379106521606445,0.02958625555038452,XArbitraryZVertical,0.1342946600837722,0.02378437306030687,0.4436546933645075,0.8857594937793691,-0.07702644169330597,-0.2590096294879913,-0.9627984762191772,0,0,0,-1,-1,15999.65754925,unknown,2,2021-04-05 21:48:26.891 -0400,2021-04-05 19:23:45.401 -0400,774,1.414659,0,0,572.4493,0,0,2021-04-05 21:48:26.891 -0400,639366514.6142819,0,-3,98.20219,1,0.64
2021-04-05 21:48:34.888 -0400,0,0,0,0,0,0,0,0,0,16007.622415875,-0.0816497802734375,-0.25799560546875,-0.9637298583984375,16007.617380875,0.9390481613057129,-0.08238292958738735,0.2595831310434202,-0.0689883753657341,-0.04262160509824753,0.004901555366814137,-0.00719817727804184,0.0004520416259765625,0.02140092849731445,XArbitraryZVertical,0.1337989733348665,0.02209671040192542,0.44352259682339,0.8859443571122042,-0.07953282445669174,-0.256677657365799,-0.963219165802002,0,0,0,-1,-1,15999.65754925,unknown,2,2021-04-05 21:48:26.891 -0400,2021-04-05 19:23:45.401 -0400,774,1.414659,0,0,572.4493,0,0,2021-04-05 21:48:26.891 -0400,639366514.6142819,0,-3,98.20219,1,0.64
2021-04-05 21:48:34.896 -0400,0,0,0,0,0,0,0,0,0,16007.657602875,-0.0821533203125,-0.2584228515625,-0.9893798828125,16007.647562875,0.9386400756584677,-0.0838893394828556,0.2575136593990888,-0.1220671162009239,-0.07026654481887817,-0.02267156541347504,0.00256732851266861,0.0006638765335083008,-0.01597350835800171,XArbitraryZVertical,0.1332255482646471,0.02093337225708158,0.4433395632230587,0.8861506068337622,-0.08102807402610779,-0.2546769976615906,-0.9636254906654358,0,0,0,-1,-1,15999.65754925,unknown,2,2021-04-05 21:48:26.891 -0400,2021-04-05 19:23:45.401 -0400,774,1.414659,0,0,572.4493,0,0,2021-04-05 21:48:26.891 -0400,639366514.6142819,0,-3,98.20219,1,0.64
2021-04-05 21:48:34.928 -0400,0,0,0,0,0,0,0,0,0,16007.692820875,-0.0769195556640625,-0.25274658203125,-0.985107421875,16007.677713875,0.9372851879857157,-0.08494835425810471,0.2554697587176889,-0.02244588732719421,0.003301493357867002,-0.02902275696396828,3.07038426399231e-05,-0.007859140634536743,-0.02788752317428589,XArbitraryZVertical,0.1325731645633264,0.01991139906303922,0.4427659239034157,0.886558647914346,-0.0820925161242485,-0.2526999413967133,-0.9640557765960693,0,0,0,-1,-1,15999.65754925,unknown,2,2021-04-05 21:48:26.891 -0400,2021-04-05 19:23:45.401 -0400,774,1.414659,0,0,572.4493,0,0,2021-04-05 21:48:26.891 -0400,639366514.6142819,0,-3,98.20219,1,0.64
2021-04-05 21:48:34.963 -0400,0,0,0,0,0,0,0,0,0,16007.728006875,-0.06939697265625,-0.2606658935546875,-0.9761962890625,16007.707895875,0.9369069705673296,-0.08470846469257477,0.2558543867266112,-0.007468280382454395,-0.007934955880045891,-0.004345954861491919,0.004323065280914307,-0.0004069507122039795,-0.01839751005172729,XArbitraryZVertical,0.1326934108208526,0.02007964472103845,0.4425958871739856,0.8866217898400747,-0.08185301721096039,-0.2530720829963684,-0.9639785289764404,0,0,0,-1,-1,15999.65754925,unknown,2,2021-04-05 21:48:26.891 -0400,2021-04-05 19:23:45.401 -0400,774,1.414659,0,0,572.4493,0,0,2021-04-05 21:48:26.891 -0400,639366514.6142819,0,-3,98.20219,1,0.64
2021-04-05 21:48:34.999 -0400,0,0,0,0,0,0,0,0,0,16007.763193875,-0.0791168212890625,-0.2551727294921875,-0.9547576904296875,16007.738077875,0.9370200199709289,-0.08553454779916735,0.256325526543617,0.06695325672626495,-0.000927523709833622,0.02324427664279938,0.01324209570884705,-0.007138073444366455,-0.01240462064743042,XArbitraryZVertical,0.1330827948520266,0.01982750227321476,0.4425686866277637,0.8865826233375121,-0.08263912051916122,-0.2535278499126434,-0.9637916684150696,0,0,0,-1,-1,15999.65754925,unknown,2,2021-04-05 21:48:26.891 -0400,2021-04-05 19:23:45.401 -0400,774,1.414659,0,0,572.4493,0,0,2021-04-05 21:48:26.891 -0400,639366514.6142819,0,-3,98.20219,1,0.64
2021-04-05 21:48:35.034 -0400,0,0,0,0,0,0,0,0,0,16007.798410875,-0.092742919921875,-0.2513427734375,-0.965545654296875,16007.798410875,0.9382556040650749,-0.08876267907582287,0.2569252024359722,-0.0384482778608799,-0.1155462861061096,-0.0323370099067688,-0.01147735863924026,-0.005016893148422241,0.00789344310760498,XArbitraryZVertical,0.1340497809634845,0.0186149611066414,0.4428718681327632,0.8863117897213221,-0.08573643118143082,-0.2541078925132751,-0.96336829662323,0,0,0,-1,-1,15999.65754925,unknown,2,2021-04-05 21:48:26.891 -0400,2021-04-05 19:23:45.401 -0400,774,1.414659,0,0,572.4493,0,0,2021-04-05 21:48:26.891 -0400,639366514.6142819,0,-3,98.20219,1,0.64
2021-04-05 21:48:35.069 -0400,0,0,0,0,0,0,0,0,0,16007.833597875,-0.0901031494140625,-0.243408203125,-0.977569580078125,16007.828562875,0.937540419149986,-0.09205178245454382,0.2569457027352904,0.008104320615530014,-0.1151486411690712,-0.005941305309534073,0.006094612181186676,0.004020899534225464,-0.006040275096893311,XArbitraryZVertical,0.1347930791635386,0.01711379106197549,0.4423328204449155,0.886498526640963,-0.08890410512685776,-0.254127711057663,-0.9630758762359619,0,0,0,-1,-1,15999.65754925,unknown,2,2021-04-05 21:48:26.891 -0400,2021-04-05 19:23:45.401 -0400,774,1.414659,0,0,572.4493,0,0,2021-04-05 21:48:26.891 -0400,639366514.6142819,0,-3,98.20219,1,0.64
2021-04-05 21:48:35.104 -0400,0,0,0,0,0,0,0,0,0,16007.868784875,-0.092193603515625,-0.2470855712890625,-0.951629638671875,16007.858744875,0.9377173976292691,-0.0922706046992221,0.2571755402290171,0.01453012879937887,0.04259657859802246,0.02264047227799892,-0.004137046635150909,0.002213746309280396,-0.004576802253723145,XArbitraryZVertical,0.1349412189388118,0.0170807752278586,0.4423851643247148,0.886450556900595,-0.08910945802927017,-0.2543500065803528,-0.9629982113838196,0,0,0,-1,-1,15999.65754925,unknown,2,2021-04-05 21:48:26.891 -0400,2021-04-05 19:23:45.401 -0400,774,1.414659,0,0,572.4493,0,0,2021-04-05 21:48:26.891 -0400,639366514.6142819,0,-3,98.20219,1,0.64
2021-04-05 21:48:35.139 -0400,0,0,0,0,0,0,0,0,0,16007.904001875,-0.084381103515625,-0.24993896484375,-0.96026611328125,16007.888895875,0.9386191623165666,-0.09167809471003602,0.2581091617060747,0.0549880750477314,0.01591037213802338,0.02816972695291042,7.897615432739258e-07,0.00503915548324585,0.005340218544006348,XArbitraryZVertical,0.1352135411479234,0.01761578553525713,0.4427787610272579,0.8862019765744538,-0.08851707726716995,-0.2552528083324432,-0.9628139734268188,0,0,0,-1,-1,15999.65754925,unknown,2,2021-04-05 21:48:26.891 -0400,2021-04-05 19:23:45.401 -0400,774,1.414659,0,0,572.4493,0,0,2021-04-05 21:48:26.891 -0400,639366514.6142819,0,-3,98.20219,1,0.64
2021-04-05 21:48:35.174 -0400,0,0,0,0,0,0,0,0,0,16007.939188875,-0.0940704345703125,-0.257171630859375,-0.966033935546875,16007.919077875,0.9387290974149145,-0.09227939179848096,0.2578628603761804,-0.03594987839460373,-0.05502031743526459,-0.01619066298007965,0.005681946873664856,0.002893656492233276,-0.0002963542938232422,XArbitraryZVertical,0.1352372213952636,0.0173009483618551,0.4427989687005163,0.8861945306272522,-0.08910179138183594,-0.2550146579742432,-0.9628231525421143,0,0,0,-1,-1,15999.65754925,unknown,2,2021-04-05 21:48:26.891 -0400,2021-04-05 19:23:45.401 -0400,774,1.414659,0,0,572.4493,0,0,2021-04-05 21:48:26.891 -0400,639366514.6142819,0,-3,98.20219,1,0.64
2021-04-05 21:48:35.209 -0400,0,0,0,0,0,0,0,0,0,16007.974375875,-0.084320068359375,-0.2445831298828125,-0.9573516845703125,16007.949259875,0.9375719584388329,-0.09285334230683129,0.2567706725633462,-0.02981019206345081,0.01249505300074816,-0.06014106050133705,-0.004390314221382141,-0.003213226795196533,-0.002985358238220215,XArbitraryZVertical,0.1348929758757623,0.01672099774778697,0.442301406968063,0.8865064468515325,-0.08968016505241394,-0.2539584338665009,-0.9630485773086548,0,0,0,-1,-1,15999.65754925,unknown,2,2021-04-05 21:48:26.891 -0400,2021-04-05 19:23:45.401 -0400,774,1.414659,0,0,572.4493,0,0,2021-04-05 21:48:26.891 -0400,639366514.6142819,0,-3,98.20219,1,0.64
2021-04-05 21:48:35.246 -0400,0,0,0,0,0,0,0,0,0,16008.009592875,-0.0828857421875,-0.2401123046875,-0.971649169921875,16008.009592875,0.9352829023110357,-0.09367950727908282,0.2545547598874356,-0.01342824660241604,-0.04636729881167412,0.02065571770071983,0.01307453215122223,0.006453186273574829,-0.009612441062927246,XArbitraryZVertical,0.1341174192757128,0.01569944583169856,0.4413402303200401,0.887121704018958,-0.09052819013595581,-0.2518145442008972,-0.9635320901870728,0,0,0,-1,-1,15999.65754925,unknown,2,2021-04-05 21:48:26.891 -0400,2021-04-05 19:23:45.401 -0400,774,1.414659,0,0,572.4493,0,0,2021-04-05 21:48:26.891 -0400,639366514.6142819,0,-3,98.20219,1,0.64
2021-04-05 21:48:35.280 -0400,0,0,0,0,0,0,0,0,0,16008.044779875,-0.0927734375,-0.2542877197265625,-0.9680633544921875,16008.039743875,0.936470722938177,-0.09559119507007884,0.254838488966792,0.0001631630584597588,-0.05174221098423004,0.03704759106040001,0.0004289299249649048,0.005888551473617554,-0.006074190139770508,XArbitraryZVertical,0.1346553983960798,0.01499558714567638,0.4417245016062054,0.8868611410119327,-0.09236317127943039,-0.2520891129970551,-0.9632861018180847,0,0,0,-1,-1,15999.65754925,unknown,2,2021-04-05 21:48:26.891 -0400,2021-04-05 19:23:45.401 -0400,774,1.414659,0,0,572.4493,0,0,2021-04-05 21:48:26.891 -0400,639366514.6142819,0,-3,98.20219,1,0.64
2021-04-05 21:48:35.375 -0400,0,0,0,0,0,0,0,0,0,16008.07996725,-0.1031341552734375,-0.2540435791015625,-0.9613800048828125,16008.06992625,0.9381347786009313,-0.09736940826400955,0.2555430516823032,0.0595749132335186,-0.05103415995836258,0.06752960383892059,0.002780541777610779,5.477666854858398e-05,0.004187881946563721,XArbitraryZVertical,0.1353465448309978,0.01447914621416395,0.4423069575549603,0.8864740827873236,-0.09405866265296936,-0.252770870923996,-0.9629433155059814,0,0,0,-1,-1,15999.65754925,unknown,2,2021-04-05 21:48:26.891 -0400,2021-04-05 19:23:45.401 -0400,774,1.414659,0,0,572.4493,0,0,2021-04-05 21:48:26.891 -0400,639366514.6142819,0,-3,98.20219,1,0.64
2021-04-05 21:48:35.380 -0400,0,0,0,0,0,0,0,0,0,16008.11518425,-0.097137451171875,-0.2480316162109375,-0.9593963623046875,16008.10007825,0.9389599980610234,-0.09784723021350074,0.2551508493684528,-0.04082240909337997,-0.002547156065702438,0.005900607444345951,-0.00788860023021698,-0.01320314407348633,-0.003449022769927979,XArbitraryZVertical,0.1352736219867307,0.01423427071871055,0.4426601222598564,0.8863128140057408,-0.0945284441113472,-0.2523913681507111,-0.9629968404769897,0,0,0,-1,-1,15999.65754925,unknown,2,2021-04-05 21:48:26.891 -0400,2021-04-05 19:23:45.401 -0400,774,1.414659,0,0,572.4493,0,0,2021-04-05 21:48:26.891 -0400,639366514.6142819,0,-3,98.20219,1,0.64
2021-04-05 21:48:35.385 -0400,0,0,0,0,0,0,0,0,0,16008.15037125,-0.09515380859375,-0.2522125244140625,-0.96661376953125,16008.13025925,0.9396454305898589,-0.09750527211873319,0.2548039132516406,0.01011323183774948,0.01122824847698212,0.01976685598492622,-0.001617595553398132,0.003581494092941284,0.002850115299224854,XArbitraryZVertical,0.1350402375018674,0.01435337240608755,0.4430044006073927,0.8861745505845973,-0.09420765191316605,-0.2520556449890137,-0.9631162285804749,0,0,0,-1,-1,15999.65754925,unknown,2,2021-04-05 21:48:26.891 -0400,2021-04-05 19:23:45.401 -0400,774,1.414659,0,0,572.4493,0,0,2021-04-05 21:48:26.891 -0400,639366514.6142819,0,-3,98.20219,1,0.64
2021-04-05 21:48:35.420 -0400,0,0,0,0,0,0,0,0,0,16008.18555725,-0.097747802734375,-0.2527923583984375,-0.9557647705078125,16008.16044125,0.9394190817711779,-0.09765392810371012,0.2539140671161131,-0.0350043885409832,-0.03666864335536957,-0.01418540347367525,-0.0007812008261680603,-0.001018136739730835,-0.003288686275482178,XArbitraryZVertical,0.1346829619263948,0.01407024100498827,0.442938784651417,0.886266267097835,-0.09437265247106552,-0.2511944472789764,-0.9633250832557678,0,0,0,-1,-1,15999.65754925,unknown,2,2021-04-05 21:48:26.891 -0400,2021-04-05 19:23:45.401 -0400,774,1.414659,0,0,572.4493,0,0,2021-04-05 21:48:26.891 -0400,639366514.6142819,0,-3,98.20219,1,0.64
2021-04-05 21:48:35.456 -0400,0,0,0,0,0,0,0,0,0,16008.22077525,-0.0962371826171875,-0.2483673095703125,-0.9511566162109375,16008.19059325,0.9392807873502715,-0.09836775661670795,0.2540551318199338,0.009546500630676746,0.01009796280413866,-0.01199538633227348,0.0002539008855819702,-5.760788917541504e-05,0.004909217357635498,XArbitraryZVertical,0.1349041172336138,0.01377661877953932,0.4428223104853435,0.8862953870512568,-0.09505680203437805,-0.2513309717178345,-0.9632221460342407,0,0,0,-1,-1,15999.65754925,unknown,2,2021-04-05 21:48:26.891 -0400,2021-04-05 19:23:45.401 -0400,774,1.414659,0,0,572.4493,0,0,2021-04-05 21:48:26.891 -0400,639366514.6142819,0,-3,98.20219,1,0.64
2021-04-05 21:48:35.491 -0400,0,0,0,0,0,0,0,0,0,16008.25596125,-0.1014556884765625,-0.2570343017578125,-0.9722900390625,16008.25092625,0.9376002795175954,-0.09863468169075278,0.2528283620996214,-0.04022091254591942,-0.0211742278188467,-0.03624814376235008,0.001487337052822113,0.003683418035507202,-0.0007305145263671875,XArbitraryZVertical,0.1344342114351604,0.01326693268403123,0.4421211720103233,0.8867244989309134,-0.09534419327974319,-0.2501434087753296,-0.9635028839111328,0,0,0,-1,-1,15999.65754925,unknown,2,2021-04-05 21:48:26.891 -0400,2021-04-05 19:23:45.401 -0400,774,1.414659,0,0,572.4493,0,0,2021-04-05 21:48:26.891 -0400,639366514.6142819,0,-3,98.20219,1,0.64
2021-04-05 21:48:35.526 -0400,0,0,0,0,0,0,0,0,0,16008.29114825,-0.0933380126953125,-0.2434844970703125,-0.972930908203125,16008.28110825,0.9360923265205192,-0.09880313971694603,0.2514476958158608,-0.03168987482786179,-0.02203117124736309,-0.02159683033823967,0.0007528290152549744,0.001522421836853027,-0.007972180843353271,XArbitraryZVertical,0.1338728471674405,0.01277844490525291,0.44151046132529,0.8871207297870402,-0.09554047882556915,-0.2488063871860504,-0.963829517364502,0,0,0,-1,-1,15999.65754925,unknown,2,2021-04-05 21:48:26.891 -0400,2021-04-05 19:23:45.401 -0400,774,1.414659,0,0,572.4493,0,0,2021-04-05 21:48:26.891 -0400,639366514.6142819,0,-3,98.20219,1,0.64
2021-04-05 21:48:35.561 -0400,0,0,0,0,0,0,0,0,0,16008.32636525,-0.1103515625,-0.2526397705078125,-0.963470458984375,16008.31129025,0.9359969732637297,-0.09927892783511151,0.2514688087933952,-0.01788028702139854,0.002210908802226186,-0.01322024036198854,-0.005365654826164246,0.00209219753742218,-0.0107542872428894,XArbitraryZVertical,0.1339877757608088,0.01256578828743948,0.4414352349416968,0.8871438987387169,-0.09599852561950684,-0.2488268315792084,-0.9637787342071533,0,0,0,-1,-1,15999.65754925,unknown,2,2021-04-05 21:48:26.891 -0400,2021-04-05 19:23:45.401 -0400,774,1.414659,0,0,572.4493,0,0,2021-04-05 21:48:26.891 -0400,639366514.6142819,0,-3,98.20219,1,0.64
2021-04-05 21:48:35.596 -0400,0,0,0,0,0,0,0,0,0,16008.36155225,-0.106292724609375,-0.2465972900390625,-0.9639434814453125,16008.34144125,0.9349852298499042,-0.09894388659163057,0.2508041730596087,-0.0201515294611454,0.001689912751317024,-0.0247761458158493,-0.01397302746772766,-0.002549394965171814,0.005692780017852783,XArbitraryZVertical,0.1336271964522271,0.01249641761079341,0.4410421145572083,0.887394803758073,-0.09569192677736282,-0.2481830567121506,-0.9639752507209778,0,0,0,-1,-1,15999.65754925,unknown,2,2021-04-05 21:48:26.891 -0400,2021-04-05 19:23:45.401 -0400,774,1.414659,0,0,572.4493,0,0,2021-04-05 21:48:26.891 -0400,639366514.6142819,0,-3,98.20219,1,0.64
2021-04-05 21:48:35.631 -0400,0,0,0,0,0,0,0,0,0,16008.39673925,-0.1000823974609375,-0.2364044189453125,-0.9545135498046875,16008.37162325,0.9341194226107212,-0.09883698432187862,0.2503032435804518,-0.03663769364356995,0.0006817013490945101,-0.03575083613395691,-0.01069163531064987,0.001100435853004456,0.0001655817031860352,XArbitraryZVertical,0.1333881236925784,0.01237287942155811,0.4406901003758253,0.8876073328087001,-0.09560113400220871,-0.2476977705955505,-0.9641090631484985,0,0,0,-1,-1,15999.65754925,unknown,2,2021-04-05 21:48:26.891 -0400,2021-04-05 19:23:45.401 -0400,774,1.414659,0,0,572.4493,0,0,2021-04-05 21:48:26.891 -0400,639366514.6142819,0,-3,98.20219,1,0.64
2021-04-05 21:48:35.668 -0400,0,0,0,0,0,0,0,0,0,16008.43195625,-0.1066131591796875,-0.2453765869140625,-0.96240234375,16008.40177425,0.9335182565036921,-0.09928883553899115,0.2490738883606083,-0.02794939652085304,-0.02301948890089989,0.004021213855594397,-0.003130562603473663,0.009705349802970886,0.008481204509735107,XArbitraryZVertical,0.1329490613475125,0.01185471772210455,0.4404545588634481,0.8877971792065702,-0.09606686979532242,-0.2465065270662308,-0.9643680453300476,0,0,0,-1,-1,15999.65754925,unknown,2,2021-04-05 21:48:26.891 -0400,2021-04-05 19:23:45.401 -0400,774,1.414659,0,0,572.4493,0,0,2021-04-05 21:48:26.891 -0400,639366514.6142819,0,-3,98.20219,1,0.64
2021-04-05 21:48:35.702 -0400,0,0,0,0,0,0,0,0,0,16008.46714325,-0.094573974609375,-0.2408599853515625,-0.9688873291015625,16008.46210825,0.9330612771410545,-0.1008804313316725,0.2472590961455891,-0.04402066767215729,0.00714584905654192,-0.01416834257543087,-8.606910705566406e-05,-0.001575320959091187,8.833408355712891e-05,XArbitraryZVertical,0.1325014506433928,0.01070820766339486,0.4402367497954917,0.8879866720433909,-0.09764652699232101,-0.2447473406791687,-0.9646574258804321,0,0,0,-1,-1,15999.65754925,unknown,2,2021-04-05 21:48:26.891 -0400,2021-04-05 19:23:45.401 -0400,774,1.414659,0,0,572.4493,0,0,2021-04-05 21:48:26.891 -0400,639366514.6142819,0,-3,98.20219,1,0.64
2021-04-05 21:48:35.738 -0400,0,0,0,0,0,0,0,0,0,16008.50236025,-0.088714599609375,-0.246490478515625,-0.9615325927734375,16008.49229025,0.9328523856935094,-0.1017271212415709,0.2461368371295321,-0.03863473236560822,-0.03881154209375381,0.003297133836895227,0.006282180547714233,-0.003701210021972656,0.0001406073570251465,XArbitraryZVertical,0.1321937283021056,0.01006519067047543,0.4401441609915813,0.888085952159249,-0.09849108755588531,-0.2436590492725372,-0.9648470282554626,0,0,0,-1,-1,15999.65754925,unknown,2,2021-04-05 21:48:26.891 -0400,2021-04-05 19:23:45.401 -0400,774,1.414659,0,0,572.4493,0,0,2021-04-05 21:48:26.891 -0400,639366514.6142819,0,-3,98.20219,1,0.64
2021-04-05 21:48:35.772 -0400,0,0,0,0,0,0,0,0,0,16008.53754725,-0.093017578125,-0.2588043212890625,-0.983123779296875,16008.52247125,0.9331021358359737,-0.1040062663582231,0.2446874500345006,-0.06677118688821793,-0.1080106124281883,0.01995823718607426,0.00889897346496582,-0.00149083137512207,-0.004908859729766846,XArbitraryZVertical,0.1320546653486852,0.008742523747475691,0.4401773863846947,0.8881040795954595,-0.1007264107465744,-0.2422530949115753,-0.9649702906608582,0,0,0,-1,-1,15999.65754925,unknown,2,2021-04-05 21:48:26.891 -0400,2021-04-05 19:23:45.401 -0400,774,1.414659,0,0,572.4493,0,0,2021-04-05 21:48:26.891 -0400,639366514.6142819,0,-3,98.20219,1,0.64
2021-04-05 21:48:35.843 -0400,0,0,0,0,0,0,0,0,0,16008.57273425,-0.1104736328125,-0.2557525634765625,-0.976959228515625,16008.55262325,0.9334246932766936,-0.1073108834325938,0.2440078132215958,0.01774072460830212,-0.07000744342803955,0.01974418386816978,0.006474390625953674,-0.0142352432012558,-0.02066272497177124,XArbitraryZVertical,0.1324808293592446,0.007142969787404032,0.4401365637720301,0.8880752215712424,-0.1039323285222054,-0.2415936440229416,-0.9647955894470215,0,0,0,-1,-1,15999.65754925,unknown,2,2021-04-05 21:48:26.891 -0400,2021-04-05 19:23:45.401 -0400,774,1.414659,0,0,572.4493,0,0,2021-04-05 21:48:26.891 -0400,639366514.6142819,0,-3,98.20219,1,0.64
2021-04-05 21:48:35.885 -0400,0,0,0,0,0,0,0,0,0,16008.60795125,-0.1023712158203125,-0.251678466796875,-0.9731597900390625,16008.58280525,0.9335052687572679,-0.1083629009852863,0.2445772530914032,-0.003036758163943887,-0.02363793738186359,-0.02930100634694099,-0.005541317164897919,-0.01360639929771423,-0.01241034269332886,XArbitraryZVertical,0.1329632078661717,0.006809833567131256,0.4400733319705112,0.8880371196861691,-0.1049323529005051,-0.2421461790800095,-0.9645488262176514,0,0,0,-1,-1,15999.65754925,unknown,2,2021-04-05 21:48:26.891 -0400,2021-04-05 19:23:45.401 -0400,774,1.414659,0,0,572.4493,0,0,2021-04-05 21:48:26.891 -0400,639366514.6142819,0,-3,98.20219,1,0.64
2021-04-05 21:48:35.891 -0400,0,0,0,0,0,0,0,0,0,16008.64313825,-0.1032257080078125,-0.2457733154296875,-0.979766845703125,16008.64313825,0.9306410738170691,-0.1085532223345093,0.2444390694585171,0.03690789639949799,-0.02951215393841267,-0.009891804307699203,0.004152096807956696,-0.002571061253547668,-0.01586085557937622,XArbitraryZVertical,0.1329536009388391,0.006503719849272527,0.4387955903817935,0.8886728082287603,-0.1051195487380028,-0.2420121133327484,-0.9645620584487915,0,0,0,-1,-1,15999.65754925,unknown,2,2021-04-05 21:48:26.891 -0400,2021-04-05 19:23:45.401 -0400,774,1.414659,0,0,572.4493,0,0,2021-04-05 21:48:26.891 -0400,639366514.6142819,0,-3,98.20219,1,0.64
2021-04-05 21:48:35.913 -0400,0,0,0,0,0,0,0,0,0,16008.67832525,-0.1176300048828125,-0.2450714111328125,-0.959991455078125,16008.67328925,0.9305411446065462,-0.1093190276583282,0.2463508540941634,0.05529060959815979,-0.02491668425500393,-0.01709255948662758,-0.002255283296108246,0.001984268426895142,-0.006698727607727051,XArbitraryZVertical,0.1339656325434413,0.006587513545789167,0.4386015008637067,0.8886160796675532,-0.1058075129985809,-0.2438666224479675,-0.9640196561813354,0,0,0,-1,-1,15999.65754925,unknown,2,2021-04-05 21:48:26.891 -0400,2021-04-05 19:23:45.401 -0400,774,1.414659,0,0,572.4493,0,0,2021-04-05 21:48:26.891 -0400,639366514.6142819,0,-3,98.20219,1,0.64
2021-04-05 21:48:35.949 -0400,0,0,0,0,0,0,0,0,0,16008.71354225,-0.1197509765625,-0.241546630859375,-0.9525604248046875,16008.70347125,0.9294737361033747,-0.1094782202530575,0.2470038942368042,-0.02053392678499222,-0.02383757196366787,-0.04523053765296936,-0.01501291245222092,6.930530071258545e-05,0.00786590576171875,XArbitraryZVertical,0.1342922521947121,0.006592240554544234,0.4380826844455775,0.8888226695871355,-0.1059435531497002,-0.2444998919963837,-0.9638442397117615,0,0,0,-1,-1,15999.65754925,unknown,2,2021-04-05 21:48:26.891 -0400,2021-04-05 19:23:45.401 -0400,774,1.414659,0,0,572.4493,0,0,2021-04-05 21:48:26.891 -0400,639366514.6142819,0,-3,98.20219,1,0.64
2021-04-05 21:48:35.984 -0400,0,0,0,0,0,0,0,0,0,16008.74872925,-0.1218719482421875,-0.242889404296875,-0.9484710693359375,16008.73365325,0.9281541901423696,-0.1104228312143194,0.2462380143271558,-0.01983402483165264,-0.0662684440612793,-0.03207775205373764,-0.01103013753890991,0.0001353323459625244,0.01477193832397461,XArbitraryZVertical,0.1341650338892273,0.005911538587022147,0.437472496852499,0.8891471365558823,-0.1068745702505112,-0.2437571883201599,-0.9639295935630798,0,0,0,-1,-1,15999.65754925,unknown,2,2021-04-05 21:48:26.891 -0400,2021-04-05 19:23:45.401 -0400,774,1.414659,0,0,572.4493,0,0,2021-04-05 21:48:26.891 -0400,639366514.6142819,0,-3,98.20219,1,0.64
2021-04-05 21:48:36.019 -0400,0,0,0,0,0,0,0,0,0,16008.78391525,-0.109405517578125,-0.2474365234375,-0.9510345458984375,16008.76380425,0.927287823684293,-0.1122759388277478,0.2460363312806669,-0.003952019847929478,-0.07305677980184555,-0.02516521885991096,-0.01123745739459991,-0.002486437559127808,0.01504826545715332,XArbitraryZVertical,0.1344834527364448,0.004984096907484708,0.4369733507723592,0.8893500951032168,-0.1086661592125893,-0.2435615807771683,-0.9637787342071533,0,0,0,-1,-1,15999.65754925,unknown,2,2021-04-05 21:48:26.891 -0400,2021-04-05 19:23:45.401 -0400,774,1.414659,0,0,572.4493,0,0,2021-04-05 21:48:26.891 -0400,639366514.6142819,0,-3,98.20219,1,0.64
2021-04-05 21:48:36.054 -0400,0,0,0,0,0,0,0,0,0,16008.81913325,-0.10980224609375,-0.2498931884765625,-0.9614105224609375,16008.79398625,0.9264777088894267,-0.1149555271630132,0.2460234356313878,-0.01242863945662975,-0.08636929094791412,-0.02531482093036175,0.001843087375164032,-0.003887489438056946,0.01245266199111938,XArbitraryZVertical,0.1350646095873513,0.003734934541335226,0.4364331713830187,0.8895334343034227,-0.1112486571073532,-0.2435490638017654,-0.9634872078895569,0,0,0,-1,-1,15999.65754925,unknown,2,2021-04-05 21:48:26.891 -0400,2021-04-05 19:23:45.401 -0400,774,1.414659,0,0,572.4493,0,0,2021-04-05 21:48:26.891 -0400,639366514.6142819,0,-3,98.20219,1,0.64
2021-04-05 21:48:36.090 -0400,0,0,0,0,0,0,0,0,0,16008.85432025,-0.0948638916015625,-0.2389678955078125,-0.9521942138671875,16008.82413825,0.9252354271285574,-0.1173631660582702,0.2455474284397184,-0.04830233007669449,-0.06369058787822723,-0.06480400264263153,0.0054120272397995,-0.003845632076263428,0.002790868282318115,XArbitraryZVertical,0.135381282821362,0.002473112831659277,0.4357430608217688,0.8898279017921913,-0.113581620156765,-0.2430873662233353,-0.9633315801620483,0,0,0,-1,-1,15999.65754925,unknown,2,2021-04-05 21:48:26.891 -0400,2021-04-05 19:23:45.401 -0400,774,1.414659,0,0,572.4493,0,0,2021-04-05 21:48:26.891 -0400,639366514.6142819,0,-3,98.20219,1,0.64
2021-04-05 21:48:36.125 -0400,0,0,0,0,0,0,0,0,0,16008.88950625,-0.09906005859375,-0.2393646240234375,-0.9461822509765625,16008.88450125,0.9224263679823638,-0.1197457900799257,0.2434703842096398,-0.04307838529348373,-0.05438695847988129,-0.01351495273411274,0.02275114506483078,0.002485647797584534,0.01610875129699707,XArbitraryZVertical,0.134984101252441,0.000757478102379597,0.4344427443158901,0.8905268853032925,-0.1159366145730019,-0.2410721033811569,-0.9635574221611023,0,0,0,-1,-1,15999.65754925,unknown,2,2021-04-05 21:48:26.891 -0400,2021-04-05 19:23:45.401 -0400,774,1.414659,0,0,572.4493,0,0,2021-04-05 21:48:26.891 -0400,639366514.6142819,0,-3,98.20219,1,0.64
2021-04-05 21:48:36.160 -0400,0,0,0,0,0,0,0,0,0,16008.92472425,-0.0992279052734375,-0.2428131103515625,-0.9796600341796875,16008.91465325,0.9210840275529215,-0.1207335998127342,0.2421572811904005,-0.0867820680141449,-0.04497385025024414,-0.07871204614639282,0.01127449423074722,-0.001611813902854919,0.008158981800079346,XArbitraryZVertical,0.1346182079808008,-6.652333065055959e-05,0.4338487047923891,0.8908722176087869,-0.1169263944029808,-0.23979751765728,-0.9637558460235596,0,0,0,-1,-1,15999.65754925,unknown,2,2021-04-05 21:48:26.891 -0400,2021-04-05 19:23:45.401 -0400,774,1.414659,0,0,572.4493,0,0,2021-04-05 21:48:26.891 -0400,639366514.6142819,0,-3,98.20219,1,0.64
2021-04-05 21:48:36.195 -0400,0,0,0,0,0,0,0,0,0,16008.95991025,-0.0966339111328125,-0.23687744140625,-0.9796295166015625,16008.94483525,0.9177628443621855,-0.1197039349874928,0.2392026845767535,-0.1111484915018082,0.03523660451173782,-0.07498926669359207,0.01260923594236374,0.0012102872133255,-0.01049214601516724,XArbitraryZVertical,0.1330874637930444,-0.0004890230584591707,0.4325950564396743,0.8917112827760618,-0.1160180941224098,-0.2369280904531479,-0.9645749926567078,0,0,0,-1,-1,15999.65754925,unknown,2,2021-04-05 21:48:26.891 -0400,2021-04-05 19:23:45.401 -0400,774,1.414659,0,0,572.4493,0,0,2021-04-05 21:48:26.891 -0400,639366514.6142819,0,-3,98.20219,1,0.64
2021-04-05 21:48:36.231 -0400,0,0,0,0,0,0,0,0,0,16008.99509725,-0.092437744140625,-0.23223876953125,-0.9770965576171875,16008.97498625,0.915023609801518,-0.1172712783419377,0.2368419802010576,-0.09046180546283722,0.03752485662698746,-0.06648700684309006,0.0177433118224144,-0.003052264451980591,-0.01393246650695801,XArbitraryZVertical,0.1315158357845329,-0.0001101485726689951,0.4316583012655664,0.8923983691674359,-0.1137363985180855,-0.2346339374780655,-0.965407133102417,0,0,0,-1,-1,15999.65754925,unknown,2,2021-04-05 21:48:26.891 -0400,2021-04-05 19:23:45.401 -0400,774,1.414659,0,0,572.4493,0,0,2021-04-05 21:48:26.891 -0400,639366514.6142819,0,-3,98.20219,1,0.64
2021-04-05 21:48:36.265 -0400,0,0,0,0,0,0,0,0,0,16009.03031425,-0.0927734375,-0.233673095703125,-0.9782562255859375,16009.00516825,0.9129716880798409,-0.1160841230186202,0.2352870717528109,-0.04871134459972382,-0.003048792947083712,-0.04321981966495514,0.02019456028938293,0.0008833557367324829,-0.01119387149810791,XArbitraryZVertical,0.1305704729953347,-5.961167690949454e-05,0.4309009979140553,0.8929029872677704,-0.1126323491334915,-0.2331221550703049,-0.9659026861190796,0,0,0,-1,-1,15999.65754925,unknown,2,2021-04-05 21:48:26.891 -0400,2021-04-05 19:23:45.401 -0400,774,1.414659,0,0,572.4493,0,0,2021-04-05 21:48:26.891 -0400,639366514.6142819,0,-3,98.20219,1,0.64
2021-04-05 21:48:36.341 -0400,0,0,0,0,0,0,0,0,0,16009.06551579167,-0.092987060546875,-0.231292724609375,-0.9680938720703125,16009.03531925,0.9118696719910696,-0.1156263202776143,0.2348609362042358,0.005994131788611412,-0.01455309521406889,-0.01561332400888205,0.01877198368310928,-0.001529961824417114,-0.01365303993225098,XArbitraryZVertical,0.1302828744428708,-2.141659170430169e-05,0.4304607890991913,0.8931572193459985,-0.1122015938162804,-0.2327077388763428,-0.966052770614624,0,0,0,-1,-1,15999.65754925,unknown,2,2021-04-05 21:48:26.891 -0400,2021-04-05 19:23:45.401 -0400,774,1.414659,0,0,572.4493,0,0,2021-04-05 21:48:26.891 -0400,639366514.6142819,0,-3,98.20219,1,0.64
2021-04-05 21:48:36.381 -0400,0,0,0,0,0,0,0,0,0,16009.10070279167,-0.114227294921875,-0.2386627197265625,-0.9688873291015625,16009.09569779167,0.9115629050965151,-0.1185229704692191,0.2360915507348784,0.04282938688993454,-0.1284893602132797,-0.01104395464062691,0.02145957946777344,-0.003842830657958984,-0.009674310684204102,XArbitraryZVertical,0.1314517956656654,-0.0010627509103277,0.4300703749095349,0.8931734614469496,-0.1149654909968376,-0.2339043915271759,-0.9654386043548584,0,0,0,-1,-1,15999.65754925,unknown,2,2021-04-05 21:48:26.891 -0400,2021-04-05 19:23:45.401 -0400,774,1.414659,0,0,572.4493,0,0,2021-04-05 21:48:26.891 -0400,639366514.6142819,0,-3,98.20219,1,0.64
2021-04-05 21:48:36.386 -0400,0,0,0,0,0,0,0,0,0,16009.13591979167,-0.1612701416015625,-0.2382965087890625,-0.9633331298828125,16009.12584879167,0.9096060290727171,-0.1248312691235735,0.2342623608134608,-0.007178173400461674,-0.1102181226015091,-0.05231015011668205,0.01949818432331085,-0.01323580741882324,-0.04086434841156006,XArbitraryZVertical,0.1319923713873533,-0.004414109302611365,0.4288774557598685,0.8936568795537911,-0.1211065053939819,-0.2321255505084991,-0.9651170372962952,0,0,0,-1,-1,15999.65754925,unknown,2,2021-04-05 21:48:26.891 -0400,2021-04-05 19:23:45.401 -0400,774,1.414659,0,0,572.4493,0,0,2021-04-05 21:48:26.891 -0400,639366514.6142819,0,-3,98.20219,1,0.64
2021-04-05 21:48:36.406 -0400,0,0,0,0,0,0,0,0,0,16009.17110679167,-0.1337127685546875,-0.2331390380859375,-0.9542236328125,16009.15603079167,0.9090878509337007,-0.1250165287095062,0.2352590365681124,0.06578332930803299,-0.03749991580843925,-0.01103220414370298,-0.003026492893695831,0.001832649111747742,-0.02128040790557861,XArbitraryZVertical,0.1324731065181909,-0.00431096101376237,0.4285803100901355,0.8937288734100794,-0.1212563887238503,-0.2330949008464813,-0.9648646116256714,0,0,0,-1,-1,15999.65754925,unknown,2,2021-04-05 21:48:26.891 -0400,2021-04-05 19:23:45.401 -0400,774,1.414659,0,0,572.4493,0,0,2021-04-05 21:48:26.891 -0400,639366514.6142819,0,-3,98.20219,1,0.64
2021-04-05 21:48:36.441 -0400,0,0,0,0,0,0,0,0,0,16009.20629379167,-0.1378936767578125,-0.2369232177734375,-0.964630126953125,16009.18618279167,0.9087287549705449,-0.1244263216100344,0.2355633052225555,-0.04350950568914413,-0.008579501882195473,-0.0165743250399828,-0.01240910589694977,-0.0001755505800247192,0.01610457897186279,XArbitraryZVertical,0.1324808957643126,-0.004003805152186885,0.4284426379616461,0.8937951818079083,-0.1206780895590782,-0.2333907783031464,-0.9648655652999878,0,0,0,-1,-1,15999.65754925,unknown,2,2021-04-05 21:48:26.891 -0400,2021-04-05 19:23:45.401 -0400,774,1.414659,0,0,572.4493,0,0,2021-04-05 21:48:26.891 -0400,639366514.6142819,0,-3,98.20219,1,0.64
2021-04-05 21:48:36.476 -0400,0,0,0,0,0,0,0,0,0,16009.24151079167,-0.1288604736328125,-0.236480712890625,-0.9675445556640625,16009.21636479167,0.908027316725845,-0.1252872393553936,0.2345628040932749,-0.04115724563598633,-0.03637104481458664,-0.01466560363769531,-0.01635588705539703,-0.004505470395088196,0.000362396240234375,XArbitraryZVertical,0.1322197821934758,-0.004655829403812458,0.4281257068790857,0.8939825061395452,-0.121537834405899,-0.2324177771806717,-0.9649925231933594,0,0,0,-1,-1,15999.65754925,unknown,2,2021-04-05 21:48:26.891 -0400,2021-04-05 19:23:45.401 -0400,774,1.414659,0,0,572.4493,0,0,2021-04-05 21:48:26.891 -0400,639366514.6142819,0,-3,98.20219,1,0.64
2021-04-05 21:48:36.512 -0400,0,0,0,0,0,0,0,0,0,16009.27669779167,-0.1315460205078125,-0.2383575439453125,-0.9645538330078125,16009.24651579167,0.9078906166153282,-0.1270010492523141,0.2341613955429594,-0.01434238627552986,-0.0457460880279541,0.008021165616810322,-0.005062147974967957,-0.004071936011314392,-0.002196252346038818,XArbitraryZVertical,0.1324080987136382,-0.005519518301514941,0.4279727818592634,0.8940229426170808,-0.1232032775878906,-0.2320273518562317,-0.9648752808570862,0,0,0,-1,-1,15999.65754925,unknown,2,2021-04-05 21:48:26.891 -0400,2021-04-05 19:23:45.401 -0400,774,1.414659,0,0,572.4493,0,0,2021-04-05 21:48:26.891 -0400,639366514.6142819,0,-3,98.20219,1,0.64
2021-04-05 21:48:36.547 -0400,0,0,0,0,0,0,0,0,0,16009.31188479167,-0.1292266845703125,-0.23681640625,-0.9744720458984375,16009.30687979167,0.9092785283483753,-0.1298146522812508,0.2330121704584754,-0.006001011934131384,-0.01920537278056145,0.04502152651548386,-0.002008244395256042,-0.0034046471118927,-0.007242023944854736,XArbitraryZVertical,0.1325049734630569,-0.006938908770954211,0.4284689909717717,0.8937609747832336,-0.1259519904851913,-0.2309093326330185,-0.964788556098938,0,0,0,-1,-1,15999.65754925,unknown,2,2021-04-05 21:48:26.891 -0400,2021-04-05 19:23:45.401 -0400,774,1.414659,0,0,572.4493,0,0,2021-04-05 21:48:26.891 -0400,639366514.6142819,0,-3,98.20219,1,0.64
2021-04-05 21:48:36.583 -0400,0,0,0,0,0,0,0,0,0,16009.34710179167,-0.123748779296875,-0.2375946044921875,-0.955657958984375,16009.33703079167,0.9104197379861336,-0.1309176457299401,0.2330181122969515,0.005916146095842123,-0.01198726333677769,0.0272121038287878,-0.003187403082847595,-0.006664261221885681,0.00514453649520874,XArbitraryZVertical,0.1327481097474243,-0.007354752587453648,0.4289054434387802,0.8935121658676052,-0.1270158886909485,-0.2309151142835617,-0.9646477103233337,0,0,0,-1,-1,15999.65754925,unknown,2,2021-04-05 21:48:26.891 -0400,2021-04-05 19:23:45.401 -0400,774,1.414659,0,0,572.4493,0,0,2021-04-05 21:48:26.891 -0400,639366514.6142819,0,-3,98.20219,1,0.64
2021-04-05 21:48:36.618 -0400,0,0,0,0,0,0,0,0,0,16009.38228879167,-0.1262359619140625,-0.2357330322265625,-0.9559326171875,16009.36721279167,0.9110377824606388,-0.1320559780282256,0.2331115784595111,-0.01086089201271534,-0.04120320826768875,-0.001224780455231667,-0.002031207084655762,-0.005901947617530823,0.01543021202087402,XArbitraryZVertical,0.1330360616382827,-0.007801515409032431,0.429100770244414,0.8933717821077958,-0.1281110644340515,-0.2310060560703278,-0.9644810557365417,0,0,0,-1,-1,15999.65754925,unknown,2,2021-04-05 21:48:26.891 -0400,2021-04-05 19:23:45.401 -0400,774,1.414659,0,0,572.4493,0,0,2021-04-05 21:48:26.891 -0400,639366514.6142819,0,-3,98.20219,1,0.64
2021-04-05 21:48:36.653 -0400,0,0,0,0,0,0,0,0,0,16009.41747479167,-0.1236724853515625,-0.2256927490234375,-0.963470458984375,16009.39736379167,0.9105159950434369,-0.1332382214474237,0.233014088897278,0.0007498352788388729,-0.05069765821099281,-0.02678701654076576,0.0008819699287414551,-0.002227872610092163,0.007426857948303223,XArbitraryZVertical,0.1332442905493376,-0.008385958772323069,0.4287943471329577,0.8934825764692517,-0.1292542070150375,-0.2309111952781677,-0.9643512964248657,0,0,0,-1,-1,15999.65754925,unknown,2,2021-04-05 21:48:26.891 -0400,2021-04-05 19:23:45.401 -0400,774,1.414659,0,0,572.4493,0,0,2021-04-05 21:48:26.891 -0400,639366514.6142819,0,-3,98.20219,1,0.64
2021-04-05 21:48:36.688 -0400,0,0,0,0,0,0,0,0,0,16009.45269279167,-0.1347808837890625,-0.2252197265625,-0.9570770263671875,16009.42754579167,0.9103180405183331,-0.1346335168049273,0.2344100354260856,0.05425940826535225,-0.04123381525278091,-0.004706697072833776,0.006883710622787476,0.006576418876647949,0.0003792047500610352,XArbitraryZVertical,0.1341613372139924,-0.008713542009929838,0.4285352792186787,0.8934664833776359,-0.1305562406778336,-0.2322691977024078,-0.9638496041297913,0,0,0,-1,-1,15999.65754925,unknown,2,2021-04-05 21:48:26.891 -0400,2021-04-05 19:23:45.401 -0400,774,1.414659,0,0,572.4493,0,0,2021-04-05 21:48:26.891 -0400,639366514.6142819,0,-3,98.20219,1,0.64
2021-04-05 21:48:36.723 -0400,0,0,0,0,0,0,0,0,0,16009.48787879167,-0.131317138671875,-0.22021484375,-0.9684600830078125,16009.45772779167,0.9100528054148976,-0.1355011270932868,0.2356693098317303,0.01254452113062143,-0.02379905991256237,-0.03135278820991516,-0.001352906227111816,0.007724776864051819,0.007070302963256836,XArbitraryZVertical,0.1349042055595798,-0.008840279111354921,0.4282881571203295,0.8934718507036307,-0.1313528269529343,-0.2334938496351242,-0.9634454250335693,0,0,0,-1,-1,15999.65754925,unknown,2,2021-04-05 21:48:26.891 -0400,2021-04-05 19:23:45.401 -0400,774,1.414659,0,0,572.4493,0,0,2021-04-05 21:48:26.891 -0400,639366514.6142819,0,-3,98.20219,1,0.64
2021-04-05 21:48:36.758 -0400,0,0,0,0,0,0,0,0,0,16009.52306579167,-0.130096435546875,-0.209930419921875,-0.978179931640625,16009.51806079167,0.9070485970527848,-0.134251555734386,0.2358424118325799,-0.02393407374620438,0.03634290397167206,-0.02939764596521854,-0.0004413425922393799,0.01692628860473633,-0.01566404104232788,XArbitraryZVertical,0.1347007759146727,-0.008446098557845687,0.4270201298245897,0.8941131443168393,-0.1301434189081192,-0.2336621582508087,-0.9635687470436096,0,0,0,-1,-1,15999.65754925,unknown,2,2021-04-05 21:48:26.891 -0400,2021-04-05 19:23:45.401 -0400,774,1.414659,0,0,572.4493,0,0,2021-04-05 21:48:26.891 -0400,639366514.6142819,0,-3,98.20219,1,0.64
2021-04-05 21:48:36.793 -0400,0,0,0,0,0,0,0,0,0,16009.55828379167,-0.122467041015625,-0.2126617431640625,-0.9716339111328125,16009.54821279167,0.906633713709581,-0.1332165551438259,0.2348114927463683,-0.01709541864693165,0.03719298541545868,0.00690435292199254,0.006024271249771118,0.01625947654247284,-0.01339948177337646,XArbitraryZVertical,0.1340207195923457,-0.00823858920483877,0.4269613889653169,0.8942452147622232,-0.129177987575531,-0.2326596528291702,-0.9639411568641663,0,0,0,-1,-1,15999.65754925,unknown,2,2021-04-05 21:48:26.891 -0400,2021-04-05 19:23:45.401 -0400,774,1.414659,0,0,572.4493,0,0,2021-04-05 21:48:26.891 -0400,639366514.6142819,0,-3,98.20219,1,0.64
2021-04-05 21:48:36.879 -0400,0,0,0,0,0,0,0,0,0,16009.59346979167,-0.11566162109375,-0.22247314453125,-0.955718994140625,16009.57839479167,0.9078354563855048,-0.1322983325394376,0.2343053120251574,0.01397492550313473,0.03786705061793327,0.07374816387891769,0.01000688970088959,0.01872734725475311,-0.003109157085418701,XArbitraryZVertical,0.1336048108299379,-0.007859354272667171,0.4275880066255915,0.8940114698495649,-0.1283083409070969,-0.2321673333644867,-0.9641759991645813,0,0,0,-1,-1,15999.65754925,unknown,2,2021-04-05 21:48:26.891 -0400,2021-04-05 19:23:45.401 -0400,774,1.414659,0,0,572.4493,0,0,2021-04-05 21:48:26.891 -0400,639366514.6142819,0,-3,98.20219,1,0.64
2021-04-05 21:48:36.884 -0400,0,0,0,0,0,0,0,0,0,16009.62865679167,-0.120025634765625,-0.2360992431640625,-0.95123291015625,16009.60854579167,0.9109034935997544,-0.1321272063706592,0.2338058745764871,0.01948277652263641,0.01720989309251308,0.12096156924963,0.0139007568359375,0.006705909967422485,0.01109623908996582,XArbitraryZVertical,0.1333586082896415,-0.007688538455990043,0.4289978622982729,0.8933740830786403,-0.1281585991382599,-0.2316815108060837,-0.964312732219696,0,0,0,-1,-1,15999.65754925,unknown,2,2021-04-05 21:48:26.891 -0400,2021-04-05 19:23:45.401 -0400,774,1.414659,0,0,572.4493,0,0,2021-04-05 21:48:26.891 -0400,639366514.6142819,0,-3,98.20219,1,0.64
2021-04-05 21:48:36.899 -0400,0,0,0,0,0,0,0,0,0,16009.66387379167,-0.1439971923828125,-0.2414093017578125,-0.97296142578125,16009.63872779167,0.9143951105367811,-0.1329125958803273,0.2322602394852642,-0.04693093523383141,-0.03973231837153435,0.1061217337846756,0.008937552571296692,-0.005921602249145508,0.01333272457122803,XArbitraryZVertical,0.1328563035634004,-0.008149679915861883,0.4305897638327202,0.8926787427443553,-0.1289632171392441,-0.2301776558160782,-0.9645655751228333,0,0,0,-1,-1,15999.65754925,unknown,2,2021-04-05 21:48:26.891 -0400,2021-04-05 19:23:45.401 -0400,774,1.414659,0,0,572.4493,0,0,2021-04-05 21:48:26.891 -0400,639366514.6142819,0,-3,98.20219,1,0.64
2021-04-05 21:48:36.934 -0400,0,0,0,0,0,0,0,0,0,16009.69906079167,-0.1668243408203125,-0.2521209716796875,-0.9862518310546875,16009.66890979167,0.9167339158686837,-0.1345674045614524,0.2295738028371705,-0.06922342628240585,-0.03853072226047516,0.05440928786993027,-0.009220406413078308,-0.01160375773906708,-0.003026902675628662,XArbitraryZVertical,0.1320336077466606,-0.009330880509702972,0.4316720701359834,0.8922663480157386,-0.1306416988372803,-0.2275625318288803,-0.9649600982666016,0,0,0,-1,-1,15999.65754925,unknown,2,2021-04-05 21:48:26.891 -0400,2021-04-05 19:23:45.401 -0400,774,1.414659,0,0,572.4493,0,0,2021-04-05 21:48:26.891 -0400,639366514.6142819,0,-3,98.20219,1,0.64
2021-04-05 21:48:36.969 -0400,0,0,0,0,0,0,0,0,0,16009.73427779167,-0.1552734375,-0.2444000244140625,-0.9794158935546875,16009.72924279167,0.9159140584461292,-0.13223238613274,0.2289320359037916,0.03344608470797539,0.09711088985204697,-0.02167001739144325,-0.02790370583534241,-0.02159763872623444,-0.01985287666320801,XArbitraryZVertical,0.1312418793116456,-0.008485876643786045,0.4314951748081958,0.8924772483144977,-0.1284073740243912,-0.226937547326088,-0.965407133102417,0,0,0,-1,-1,15999.65754925,unknown,2,2021-04-05 21:48:26.891 -0400,2021-04-05 19:23:45.401 -0400,774,1.414659,0,0,572.4493,0,0,2021-04-05 21:48:26.891 -0400,639366514.6142819,0,-3,98.20219,1,0.64
2021-04-05 21:48:37.005 -0400,0,0,0,0,0,0,0,0,0,16009.76946479167,-0.1405792236328125,-0.2315673828125,-0.9702606201171875,16009.75939379167,0.9155214936717363,-0.129915516631858,0.2310510815340742,0.0567682757973671,0.05274373292922974,-0.02902526967227459,-0.02164316177368164,-0.01173713803291321,-0.01135468482971191,XArbitraryZVertical,0.1316791653742525,-0.007006394491249937,0.4313568587925957,0.8924924157654079,-0.1261077374219894,-0.2290008068084717,-0.9652230143547058,0,0,0,-1,-1,15999.65754925,unknown,2,2021-04-05 21:48:26.891 -0400,2021-04-05 19:23:45.401 -0400,774,1.414659,0,0,572.4493,0,0,2021-04-05 21:48:26.891 -0400,639366514.6142819,0,-3,98.20219,1,0.64
2021-04-05 21:48:37.039 -0400,0,0,0,0,0,0,0,0,0,16009.80465179167,-0.1411895751953125,-0.2228546142578125,-0.9706268310546875,16009.78957579167,0.914940093146229,-0.1298188657266622,0.2329737867172873,0.03333750367164612,0.008512582629919052,-0.04146867245435715,-0.01655992865562439,0.00443151593208313,-0.006165683269500732,XArbitraryZVertical,0.1325079925962244,-0.006574199418574888,0.4309991292506129,0.8925459182767455,-0.1259572058916092,-0.2308719903230667,-0.9647968411445618,0,0,0,-1,-1,15999.65754925,unknown,2,2021-04-05 21:48:26.891 -0400,2021-04-05 19:23:45.401 -0400,774,1.414659,0,0,572.4493,0,0,2021-04-05 21:48:26.891 -0400,639366514.6142819,0,-3,98.20219,1,0.64
2021-04-05 21:48:37.075 -0400,0,0,0,0,0,0,0,0,0,16009.83986879167,-0.1405029296875,-0.2117156982421875,-0.9508514404296875,16009.81972779167,0.9143175363445977,-0.1301264046443023,0.2349676014305997,0.06309080123901367,0.01006653718650341,-0.01378466375172138,-0.01473627984523773,0.01314593851566315,-0.00367206335067749,XArbitraryZVertical,0.1334553796779161,-0.006309815820149978,0.4305918971862228,0.8926031645243986,-0.1261939406394958,-0.2328114807605743,-0.9642996788024902,0,0,0,-1,-1,15999.65754925,unknown,2,2021-04-05 21:48:26.891 -0400,2021-04-05 19:23:45.401 -0400,774,1.414659,0,0,572.4493,0,0,2021-04-05 21:48:26.891 -0400,639366514.6142819,0,-3,98.20219,1,0.64
2021-04-05 21:48:37.110 -0400,0,0,0,0,0,0,0,0,0,16009.87505579167,-0.1410675048828125,-0.22357177734375,-0.9384613037109375,16009.84990879167,0.9149331067203738,-0.1306188470243834,0.2371888748543595,0.05805410072207451,0.01478283107280731,0.01896607503294945,-0.01390185952186584,0.02325540781021118,0.0128709077835083,XArbitraryZVertical,0.1345470067182044,-0.005994746885425847,0.4307114846120297,0.892383846818871,-0.1266011148691177,-0.2349711358547211,-0.9637223482131958,0,0,0,-1,-1,15999.65754925,unknown,2,2021-04-05 21:48:26.891 -0400,2021-04-05 19:23:45.401 -0400,774,1.414659,0,0,572.4493,0,0,2021-04-05 21:48:26.891 -0400,639366514.6142819,0,-3,98.20219,1,0.64
2021-04-05 21:48:37.145 -0400,0,0,0,0,0,0,0,0,0,16009.91024279167,-0.133575439453125,-0.24041748046875,-0.9414215087890625,16009.88009079167,0.9155006193314322,-0.1308411820739939,0.2381633849569923,0.02938649617135525,-0.005521415267139673,0.01030089799314737,-0.01371753215789795,0.01288048923015594,0.02239614725112915,XArbitraryZVertical,0.1350280221224766,-0.005839013873064834,0.4308958786315101,0.8922231949663201,-0.1267854422330856,-0.235918253660202,-0.9634667038917542,0,0,0,-1,-1,15999.65754925,unknown,2,2021-04-05 21:48:26.891 -0400,2021-04-05 19:23:45.401 -0400,774,1.414659,0,0,572.4493,0,0,2021-04-05 21:48:26.891 -0400,639366514.6142819,0,-3,98.20219,1,0.64
2021-04-05 21:48:37.180 -0400,0,0,0,0,0,0,0,0,0,16009.94545979167,-0.132476806640625,-0.2418212890625,-0.9605712890625,16009.94042479167,0.9150217139036725,-0.133430339700912,0.2365412172155014,-0.02993358671665192,-0.0250474251806736,-0.03326204419136047,-0.001712203025817871,-0.01179799437522888,0.00846564769744873,XArbitraryZVertical,0.1348659447566781,-0.007387228803043109,0.4305975511147768,0.8923802444009136,-0.1293303221464157,-0.234341561794281,-0.963513195514679,0,0,0,-1,-1,15999.65754925,unknown,2,2021-04-05 21:48:26.891 -0400,2021-04-05 19:23:45.401 -0400,774,1.414659,0,0,572.4493,0,0,2021-04-05 21:48:26.891 -0400,639366514.6142819,0,-3,98.20219,1,0.64
2021-04-05 21:48:37.215 -0400,0,0,0,0,0,0,0,0,0,16009.98064679167,-0.1272430419921875,-0.2387847900390625,-0.9850616455078125,16009.97057579167,0.9135499514850155,-0.1337349334287109,0.2355623638741756,-0.0479898639023304,-0.003363988827914,-0.06622112542390823,0.001526221632957458,-0.007866889238357544,-0.01031363010406494,XArbitraryZVertical,0.1344924327761043,-0.007839763113255516,0.4299747208647758,0.8927329610800752,-0.1296543180942535,-0.2333898544311523,-0.9637006521224976,0,0,0,-1,-1,15999.65754925,unknown,2,2021-04-05 21:48:26.891 -0400,2021-04-05 19:23:45.401 -0400,774,1.414659,0,0,572.4493,0,0,2021-04-05 21:48:26.891 -0400,639366517.1837548,0,-3,98.20214,1,0.64
2021-04-05 21:48:37.251 -0400,0,0,0,0,0,0,0,0,0,16010.01583379167,-0.1190032958984375,-0.23455810546875,-0.9804534912109375,16010.00075779167,0.9114376630529211,-0.1325543371119504,0.2348949083731418,-0.01050995476543903,0.05623245611786842,-0.05168678984045982,0.004055798053741455,-0.005677834153175354,-0.02117645740509033,XArbitraryZVertical,0.1339350049660248,-0.007602416673041097,0.4291478637393922,0.8932164631726492,-0.1285370439291,-0.2327407747507095,-0.9640072584152222,0,0,0,-1,-1,15999.65754925,unknown,2,2021-04-05 21:48:26.891 -0400,2021-04-05 19:23:45.401 -0400,774,1.414659,0,0,572.4493,0,0,2021-04-05 21:48:26.891 -0400,639366517.1837548,0,-3,98.20214,1,0.64
2021-04-05 21:48:37.286 -0400,0,0,0,0,0,0,0,0,0,16010.05105079167,-0.1219635009765625,-0.2418975830078125,-0.9713287353515625,16010.03093979167,0.9102322633719353,-0.1314309391058411,0.2355863402199091,0.01375951059162617,0.03840525448322296,-0.03840072825551033,0.007330909371376038,0.001738935708999634,-0.01533305644989014,XArbitraryZVertical,0.1339961568963789,-0.007028300567973906,0.4286465344800331,0.8934527998293617,-0.1274328827857971,-0.2334131747484207,-0.9639912843704224,0,0,0,-1,-1,15999.65754925,unknown,2,2021-04-05 21:48:26.891 -0400,2021-04-05 19:23:45.401 -0400,774,1.414659,0,0,572.4493,0,0,2021-04-05 21:48:26.891 -0400,639366517.1837548,0,-3,98.20214,1,0.64
2021-04-05 21:48:37.341 -0400,0,0,0,0,0,0,0,0,0,16010.08624229167,-0.1303558349609375,-0.243865966796875,-0.960357666015625,16010.06109079167,0.9090774818274947,-0.1298373302636962,0.2369846342758255,0.07430768758058548,0.04683799296617508,-0.03856399655342102,0.003890573978424072,-0.007125005125999451,-0.007460176944732666,XArbitraryZVertical,0.1342710166422292,-0.006084580359096941,0.428160651487313,0.893651410280984,-0.1258541196584702,-0.2347726076841354,-0.9638685584068298,0,0,0,-1,-1,15999.65754925,unknown,2,2021-04-05 21:48:26.891 -0400,2021-04-05 19:23:45.401 -0400,774,1.414659,0,0,572.4493,0,0,2021-04-05 21:48:26.891 -0400,639366517.1837548,0,-3,98.20214,1,0.64
2021-04-05 21:48:37.383 -0400,0,0,0,0,0,0,0,0,0,16010.12142829167,-0.1147003173828125,-0.2437896728515625,-0.9596710205078125,16010.09127729167,0.9086345941357581,-0.1269141457291215,0.2413430556396321,0.2300545871257782,0.1561359465122223,-0.03631722182035446,-0.003422215580940247,2.379715442657471e-05,0.0007448196411132812,XArbitraryZVertical,0.1355770506943575,-0.003845587793562782,0.4279214146200579,0.8935811411027025,-0.1229053363204002,-0.2390069663524628,-0.9632081389427185,0,0,0,-1,-1,15999.65754925,unknown,2,2021-04-05 21:48:26.891 -0400,2021-04-05 19:23:45.401 -0400,774,1.414659,0,0,572.4493,0,0,2021-04-05 21:48:26.891 -0400,639366517.1837548,0,-3,98.20214,1,0.64
2021-04-05 21:48:37.391 -0400,0,0,0,0,0,0,0,0,0,16010.15664629167,-0.09466552734375,-0.237213134765625,-0.971923828125,16010.15161029167,0.9062207315562089,-0.1213678204986151,0.2480510717856857,0.03829216212034225,0.05725322663784027,-0.006840288639068604,-0.02083444595336914,0.0233929306268692,0.0434538722038269,XArbitraryZVertical,0.1373647188156868,-5.280483168076657e-05,0.4268565514451632,0.8938256931190621,-0.1173644587397575,-0.2455151528120041,-0.9622618556022644,0,0,0,-1,-1,15999.65754925,unknown,2,2021-04-05 21:48:26.891 -0400,2021-04-05 19:23:45.401 -0400,774,1.414659,0,0,572.4493,0,0,2021-04-05 21:48:26.891 -0400,639366517.1837548,0,-3,98.20214,1,0.64
2021-04-05 21:48:37.428 -0400,0,0,0,0,0,0,0,0,0,16010.19183229167,-0.1183624267578125,-0.238128662109375,-0.97723388671875,16010.18176229167,0.9058868819453433,-0.1230980254045626,0.2486611054002509,-0.00753822224214673,-0.04771768674254417,-0.01296509243547916,0.00508861243724823,4.319846630096436e-05,-0.0008447170257568359,XArbitraryZVertical,0.1380044079823926,-0.000714764049269247,0.4265550905670727,0.8938708638898818,-0.1190107762813568,-0.2461064606904984,-0.9619085192680359,0,0,0,-1,-1,15999.65754925,unknown,2,2021-04-05 21:48:26.891 -0400,2021-04-05 19:23:45.401 -0400,774,1.414659,0,0,572.4493,0,0,2021-04-05 21:48:26.891 -0400,639366517.1837548,0,-3,98.20214,1,0.64
2021-04-05 21:48:37.462 -0400,0,0,0,0,0,0,0,0,0,16010.22701929167,-0.1166229248046875,-0.2390899658203125,-0.9593505859375,16010.21194429167,0.9059354135753681,-0.1240770352174793,0.2489126304191562,0.03283562138676643,-0.007746384013444185,0.01854328066110611,0.006266750395298004,0.007397577166557312,-0.009293437004089355,XArbitraryZVertical,0.1383247854843889,-0.001093587563893587,0.4264954014129246,0.8938494521231244,-0.1199447736144066,-0.2463502436876297,-0.9617301225662231,0,0,0,-1,-1,15999.65754925,unknown,2,2021-04-05 21:48:26.891 -0400,2021-04-05 19:23:45.401 -0400,774,1.414659,0,0,572.4493,0,0,2021-04-05 21:48:26.891 -0400,639366517.1837548,0,-3,98.20214,1,0.64
2021-04-05 21:48:37.498 -0400,0,0,0,0,0,0,0,0,0,16010.26223629167,-0.1152191162109375,-0.241607666015625,-0.951202392578125,16010.24212529167,0.9067567192299905,-0.1232701213016756,0.2495335163105905,0.004240662325173616,0.04834329336881638,0.01920903846621513,0.002740524709224701,0.007724612951278687,0.004094064235687256,XArbitraryZVertical,0.1384283415317986,-0.0005394220496427652,0.4268842784818705,0.8936482564135368,-0.1191498711705208,-0.2469519525766373,-0.9616746306419373,0,0,0,-1,-1,15999.65754925,unknown,2,2021-04-05 21:48:26.891 -0400,2021-04-05 19:23:45.401 -0400,774,1.414659,0,0,572.4493,0,0,2021-04-05 21:48:26.891 -0400,639366517.1837548,0,-3,98.20214,1,0.64
2021-04-05 21:48:37.532 -0400,0,0,0,0,0,0,0,0,0,16010.29742329167,-0.1148834228515625,-0.2371978759765625,-0.96063232421875,16010.27227729167,0.9065656913434023,-0.1219445496901997,0.2487549739130016,-0.02498054131865501,0.01485346630215645,-0.02117936313152313,0.002679191529750824,0.004589751362800598,0.01081985235214233,XArbitraryZVertical,0.1378000828368489,-0.0001317930367300381,0.4269328989325926,0.8937221773445517,-0.1178983524441719,-0.246197447180748,-0.9620222449302673,0,0,0,-1,-1,15999.65754925,unknown,2,2021-04-05 21:48:26.891 -0400,2021-04-05 19:23:45.401 -0400,774,1.414659,0,0,572.4493,0,0,2021-04-05 21:48:26.891 -0400,639366517.1837548,0,-3,98.20214,1,0.64
2021-04-05 21:48:37.569 -0400,0,0,0,0,0,0,0,0,0,16010.33261029167,-0.1129150390625,-0.2369384765625,-0.9649658203125,16010.30245929167,0.9055630388954438,-0.1214941718619769,0.2476102084413136,-0.03341907635331154,0.006648779846727848,-0.02620401605963707,0.001303426921367645,0.008591756224632263,0.004178762435913086,XArbitraryZVertical,0.1371960219140393,-0.0002514624434312096,0.4265777440386881,0.8939847139841925,-0.1174991428852081,-0.2450877577066422,-0.9623543620109558,0,0,0,-1,-1,15999.65754925,unknown,2,2021-04-05 21:48:26.891 -0400,2021-04-05 19:23:45.401 -0400,774,1.414659,0,0,572.4493,0,0,2021-04-05 21:48:26.891 -0400,639366517.1837548,0,-3,98.20214,1,0.64
2021-04-05 21:48:37.602 -0400,0,0,0,0,0,0,0,0,0,16010.36782729167,-0.1128692626953125,-0.2406005859375,-0.96380615234375,16010.36279229167,0.9044176422890564,-0.1192435195543939,0.2465563773048171,-0.007523895706981421,0.04180426895618439,-0.02529284916818142,0.002753674983978271,0.002565041184425354,-0.002215564250946045,XArbitraryZVertical,0.1362484975071734,0.0004447121507757859,0.4262761677699496,0.8942733101524294,-0.1153635829687119,-0.2440659254789352,-0.962872326374054,0,0,0,-1,-1,15999.65754925,unknown,2,2021-04-05 21:48:26.891 -0400,2021-04-05 19:23:45.401 -0400,774,1.414659,0,0,572.4493,0,0,2021-04-05 21:48:26.891 -0400,639366517.1837548,0,-3,98.20214,1,0.64
2021-04-05 21:48:37.638 -0400,0,0,0,0,0,0,0,0,0,16010.40301429167,-0.1171112060546875,-0.249725341796875,-0.97003173828125,16010.39297429167,0.9038794408997802,-0.1178541777963641,0.246336044634249,-0.003847934538498521,0.03494982421398163,-0.0167078822851181,0.0003692731261253357,0.003175348043441772,0.001750826835632324,XArbitraryZVertical,0.1358547827935021,0.0009809667023046075,0.4261417309648575,0.894396899369545,-0.1140320375561714,-0.2438522577285767,-0.9630850553512573,0,0,0,-1,-1,15999.65754925,unknown,2,2021-04-05 21:48:26.891 -0400,2021-04-05 19:23:45.401 -0400,774,1.414659,0,0,572.4493,0,0,2021-04-05 21:48:26.891 -0400,639366517.1837548,0,-3,98.20214,1,0.64
2021-04-05 21:48:37.673 -0400,0,0,0,0,0,0,0,0,0,16010.43820129167,-0.1175689697265625,-0.242523193359375,-0.96112060546875,16010.42312529167,0.903173324079147,-0.1166952078702223,0.246171565558322,0.004724890924990177,0.03796784207224846,-0.01820061728358269,-0.003336325287818909,-0.001912772655487061,-0.004669666290283203,XArbitraryZVertical,0.1355352971951154,0.001415301970228906,0.4259132900614079,0.8945534879998023,-0.1129204407334328,-0.2436927407979965,-0.9632563591003418,0,0,0,-1,-1,15999.65754925,unknown,2,2021-04-05 21:48:26.891 -0400,2021-04-05 19:23:45.401 -0400,774,1.414659,0,0,572.4493,0,0,2021-04-05 21:48:26.891 -0400,639366517.1837548,0,-3,98.20214,1,0.64
2021-04-05 21:48:37.708 -0400,0,0,0,0,0,0,0,0,0,16010.47341829167,-0.120025634765625,-0.243621826171875,-0.9601593017578125,16010.45330729167,0.902998080051697,-0.1156852992513963,0.2462588222831033,0.000386302825063467,0.03554411977529526,-0.004274432547390461,-0.005562849342823029,-0.0002869963645935059,0.001816213130950928,XArbitraryZVertical,0.1353591217156866,0.001874281038169208,0.4258986793920097,0.8945863864192317,-0.1119451299309731,-0.2437773644924164,-0.9633488059043884,0,0,0,-1,-1,15999.65754925,unknown,2,2021-04-05 21:48:26.891 -0400,2021-04-05 19:23:45.401 -0400,774,1.414659,0,0,572.4493,0,0,2021-04-05 21:48:26.891 -0400,639366517.1837548,0,-3,98.20214,1,0.64
2021-04-05 21:48:37.743 -0400,0,0,0,0,0,0,0,0,0,16010.50860529167,-0.1199493408203125,-0.2479095458984375,-0.9673004150390625,16010.48345829167,0.9028678290315881,-0.1150024988403407,0.2461047810943999,-0.002073858864605427,0.01073154993355274,-0.003459605155512691,-0.008734047412872314,6.109476089477539e-06,0.003302991390228271,XArbitraryZVertical,0.1351454248296879,0.002137107374997388,0.4258946781791439,0.8946200025286507,-0.1112916395068169,-0.2436279654502869,-0.9634622931480408,0,0,0,-1,-1,15999.65754925,unknown,2,2021-04-05 21:48:26.891 -0400,2021-04-05 19:23:45.401 -0400,774,1.414659,0,0,572.4493,0,0,2021-04-05 21:48:26.891 -0400,639366517.1837548,0,-3,98.20214,1,0.64
2021-04-05 21:48:37.779 -0400,0,0,0,0,0,0,0,0,0,16010.54379229167,-0.1128387451171875,-0.241302490234375,-0.9627685546875,16010.51364029167,0.9021624110605716,-0.1148847108853034,0.2457159878991093,-0.04136872291564941,-0.001758143305778503,-0.03995415195822716,-0.01030152291059494,-0.005299583077430725,-0.001335382461547852,XArbitraryZVertical,0.1349483683913863,0.002056947306657792,0.4256074349968531,0.8947865316454635,-0.1111890003085136,-0.2432508617639542,-0.9635694026947021,0,0,0,-1,-1,15999.65754925,unknown,2,2021-04-05 21:48:26.891 -0400,2021-04-05 19:23:45.401 -0400,774,1.414659,0,0,572.4493,0,0,2021-04-05 21:48:26.891 -0400,639366517.1837548,0,-3,98.20214,1,0.64
2021-04-05 21:48:37.867 -0400,0,0,0,0,0,0,0,0,0,16010.57900929167,-0.112884521484375,-0.244537353515625,-0.9648895263671875,16010.57397429167,0.9009184841801905,-0.1142648726334584,0.2456762973581602,0.02803610637784004,0.02857698127627373,-0.01200342550873756,-0.002947874367237091,-0.003323912620544434,-0.001867353916168213,XArbitraryZVertical,0.1348002336226982,0.002241714254763925,0.4250946847110894,0.8950521911751318,-0.110592819750309,-0.2432123720645905,-0.963647723197937,0,0,0,-1,-1,15999.65754925,unknown,2,2021-04-05 21:48:26.891 -0400,2021-04-05 19:23:45.401 -0400,774,1.414659,0,0,572.4493,0,0,2021-04-05 21:48:26.891 -0400,639366517.1837548,0,-3,98.20214,1,0.64
2021-04-05 21:48:37.872 -0400,0,0,0,0,0,0,0,0,0,16010.61419629167,-0.117401123046875,-0.2485198974609375,-0.9726409912109375,16010.60415529167,0.9004235483139739,-0.1134536182945831,0.2467345340836066,0.02869126573204994,0.04935398325324059,-0.03309928998351097,-0.00772615522146225,-0.0007259398698806763,-0.003819525241851807,XArbitraryZVertical,0.1350988623976665,0.002802914091149118,0.4248727929655052,0.8951109104594365,-0.1097818240523338,-0.2442386895418167,-0.9634808897972107,0,0,0,-1,-1,15999.65754925,unknown,2,2021-04-05 21:48:26.891 -0400,2021-04-05 19:23:45.401 -0400,774,1.414659,0,0,572.4493,0,0,2021-04-05 21:48:26.891 -0400,639366517.1837548,0,-3,98.20214,1,0.64
2021-04-05 21:48:37.884 -0400,0,0,0,0,0,0,0,0,0,16010.64938229167,-0.1167144775390625,-0.247772216796875,-0.95220947265625,16010.63430729167,0.8992193046288587,-0.111871010395306,0.2476407665358266,0.04152511805295944,0.04664501547813416,-0.04777934774756432,-0.007170148193836212,-0.003738239407539368,-0.00928419828414917,XArbitraryZVertical,0.1351676863797183,0.003628008700682954,0.4243936417807579,0.8953248408552144,-0.1082321181893349,-0.2451173812150955,-0.9634330868721008,0,0,0,-1,-1,15999.65754925,unknown,2,2021-04-05 21:48:26.891 -0400,2021-04-05 19:23:45.401 -0400,774,1.414659,0,0,572.4493,0,0,2021-04-05 21:48:26.891 -0400,639366517.1837548,0,-3,98.20214,1,0.64
2021-04-05 21:48:37.920 -0400,0,0,0,0,0,0,0,0,0,16010.68460029167,-0.11029052734375,-0.250823974609375,-0.9674224853515625,16010.66448929167,0.8977865221987571,-0.110433085285773,0.248909727529817,0.01556078437715769,0.01864855363965034,-0.05885739997029305,-0.008818849921226501,-0.0003414452075958252,0.01279258728027344,XArbitraryZVertical,0.1354300314525453,0.004451813754172009,0.4237838597892002,0.8955702721445191,-0.1068122982978821,-0.2463474273681641,-0.9632777571678162,0,0,0,-1,-1,15999.65754925,unknown,2,2021-04-05 21:48:26.891 -0400,2021-04-05 19:23:45.401 -0400,774,1.414659,0,0,572.4493,0,0,2021-04-05 21:48:26.891 -0400,639366517.1837548,0,-3,98.20214,1,0.64
2021-04-05 21:48:37.954 -0400,0,0,0,0,0,0,0,0,0,16010.71978729167,-0.102264404296875,-0.2424774169921875,-0.9657135009765625,16010.69464029167,0.8955863186732398,-0.1099385016761687,0.2492375133083202,0.01037116907536983,0.007995151914656162,-0.07640483230352402,-0.003963567316532135,-0.004158899188041687,-0.004172265529632568,XArbitraryZVertical,0.1354761686628813,0.004595717689582506,0.4228150022399798,0.8960204226555215,-0.1063269972801208,-0.2466651052236557,-0.9632501602172852,0,0,0,-1,-1,15999.65754925,unknown,2,2021-04-05 21:48:26.891 -0400,2021-04-05 19:23:45.401 -0400,774,1.414659,0,0,572.4493,0,0,2021-04-05 21:48:26.891 -0400,639366517.1837548,0,-3,98.20214,1,0.64
2021-04-05 21:48:37.990 -0400,0,0,0,0,0,0,0,0,0,16010.75497329167,-0.09771728515625,-0.249755859375,-0.9570159912109375,16010.72482229167,0.894025460347061,-0.1090504144821293,0.2501671221288265,0.03503550589084625,0.03202751651406288,-0.03377721458673477,0.002052903175354004,0.004462823271751404,-0.003833591938018799,XArbitraryZVertical,0.1357061473265559,0.005089907160679892,0.4221280526231556,0.8963068442449774,-0.1054465025663376,-0.2475658804178238,-0.9631158709526062,0,0,0,-1,-1,15999.65754925,unknown,2,2021-04-05 21:48:26.891 -0400,2021-04-05 19:23:45.401 -0400,774,1.414659,0,0,572.4493,0,0,2021-04-05 21:48:26.891 -0400,639366517.1837548,0,-3,98.20214,1,0.64
2021-04-05 21:48:38.025 -0400,0,0,0,0,0,0,0,0,0,16010.79019129167,-0.092376708984375,-0.2425689697265625,-0.9592437744140625,16010.78515529167,0.8914884408201722,-0.1080396183279142,0.2501469038875631,-0.0142116155475378,-0.0003796294331550598,-0.0346149280667305,0.007473304867744446,0.005496084690093994,0.006546676158905029,XArbitraryZVertical,0.1354907102109448,0.005366647422546162,0.421060321776382,0.8968398225469624,-0.1044734790921211,-0.2475463002920151,-0.9632269144058228,0,0,0,-1,-1,15999.65754925,unknown,2,2021-04-05 21:48:26.891 -0400,2021-04-05 19:23:45.401 -0400,774,1.414659,0,0,572.4493,0,0,2021-04-05 21:48:26.891 -0400,639366517.1837548,0,-3,98.20214,1,0.64
2021-04-05 21:48:38.060 -0400,0,0,0,0,0,0,0,0,0,16010.82537729167,-0.0887451171875,-0.23809814453125,-0.9609222412109375,16010.81533729167,0.8905509241838127,-0.1080173027758316,0.2496752175870021,-0.01595796085894108,-0.01258422248065472,-0.01569127105176449,0.01341532170772552,0.007922977209091187,0.00375056266784668,XArbitraryZVertical,0.1352783180836117,0.005211067946623988,0.4206654207272956,0.8970581234119022,-0.1044645607471466,-0.2470892667770386,-0.9633452296257019,0,0,0,-1,-1,15999.65754925,unknown,2,2021-04-05 21:48:26.891 -0400,2021-04-05 19:23:45.401 -0400,774,1.414659,0,0,572.4493,0,0,2021-04-05 21:48:26.891 -0400,639366517.1837548,0,-3,98.20214,1,0.64
2021-04-05 21:48:38.095 -0400,0,0,0,0,0,0,0,0,0,16010.86056429167,-0.08953857421875,-0.2398681640625,-0.9660186767578125,16010.84548829167,0.8902733099823139,-0.1084448871144862,0.2488842717215172,-0.03747249767184258,-0.01886608637869358,0.0003186715766787529,0.01599983125925064,0.008712872862815857,0.003457248210906982,XArbitraryZVertical,0.1350164469431041,0.004829374682537805,0.4205522991979176,0.8971527496550966,-0.1048975810408592,-0.2463227659463882,-0.9634944796562195,0,0,0,-1,-1,15999.65754925,unknown,2,2021-04-05 21:48:26.891 -0400,2021-04-05 19:23:45.401 -0400,774,1.414659,0,0,572.4493,0,0,2021-04-05 21:48:26.891 -0400,639366517.1837548,0,-3,98.20214,1,0.64
2021-04-05 21:48:38.131 -0400,0,0,0,0,0,0,0,0,0,16010.89578129167,-0.0927886962890625,-0.24517822265625,-0.96807861328125,16010.87567029167,0.8903168511689746,-0.1084461229585652,0.2473018348588162,-0.05499298870563507,-0.003389022778719664,0.02678223699331284,0.01505125313997269,0.00464591383934021,-0.005922198295593262,XArbitraryZVertical,0.1343113056109808,0.004489385716723272,0.4206522422448599,0.8972135097316146,-0.1049408316612244,-0.2447887808084488,-0.9638806581497192,0,0,0,-1,-1,15999.65754925,unknown,2,2021-04-05 21:48:26.891 -0400,2021-04-05 19:23:45.401 -0400,774,1.414659,0,0,572.4493,0,0,2021-04-05 21:48:26.891 -0400,639366517.1837548,0,-3,98.20214,1,0.64
2021-04-05 21:48:38.166 -0400,0,0,0,0,0,0,0,0,0,16010.93096829167,-0.101531982421875,-0.248779296875,-0.9739532470703125,16010.90582229167,0.8913527382015252,-0.1081033561487823,0.2456986576396845,-0.0396701917052269,0.005200982559472322,0.051015954464674,0.01186390221118927,-0.001944199204444885,-0.003773152828216553,XArbitraryZVertical,0.1335223351863501,0.004365464644206707,0.4212211132590781,0.8970649266262494,-0.1046526432037354,-0.2432340532541275,-0.9643054604530334,0,0,0,-1,-1,15999.65754925,unknown,2,2021-04-05 21:48:26.891 -0400,2021-04-05 19:23:45.401 -0400,774,1.414659,0,0,572.4493,0,0,2021-04-05 21:48:26.891 -0400,639366517.1837548,0,-3,98.20214,1,0.64
2021-04-05 21:48:38.201 -0400,0,0,0,0,0,0,0,0,0,16010.96618529167,-0.10052490234375,-0.246795654296875,-0.9847259521484375,16010.93600429167,0.8926416549140274,-0.1080976035819617,0.2442459979870564,-0.04507449269294739,-0.004357040859758854,0.04105478152632713,0.006632082164287567,-0.004879370331764221,-0.007160663604736328,XArbitraryZVertical,0.1328710279874883,0.004139050679450355,0.4218729080805539,0.8968564002600266,-0.1046851053833961,-0.2418247759342194,-0.9646562933921814,0,0,0,-1,-1,15999.65754925,unknown,2,2021-04-05 21:48:26.891 -0400,2021-04-05 19:23:45.401 -0400,774,1.414659,0,0,572.4493,0,0,2021-04-05 21:48:26.891 -0400,639366517.1837548,0,-3,98.20214,1,0.64
2021-04-05 21:48:38.236 -0400,0,0,0,0,0,0,0,0,0,16011.00137229167,-0.11077880859375,-0.2418670654296875,-0.970062255859375,16010.99633729167,0.8957825912149555,-0.1077032072113636,0.2433131474277598,0.015576739795506,0.03082604147493839,0.08582671731710434,-0.002024956047534943,-0.00280916690826416,-0.01797348260879517,XArbitraryZVertical,0.1323655180986273,0.004321486935984545,0.4233540478995008,0.8962321428672575,-0.1043288484215736,-0.2409195005893707,-0.9649214148521423,0,0,0,-1,-1,15999.65754925,unknown,2,2021-04-05 21:48:26.891 -0400,2021-04-05 19:23:45.401 -0400,774,1.414659,0,0,572.4493,0,0,2021-04-05 21:48:26.891 -0400,639366517.1837548,0,-3,98.20214,1,0.64
2021-04-05 21:48:38.272 -0400,0,0,0,0,0,0,0,0,0,16011.03655929167,-0.10992431640625,-0.2449951171875,-0.9525299072265625,16011.02651929167,0.8986115677862015,-0.1071303428279269,0.244460656995123,0.05566480383276939,0.0217779316008091,0.07680181413888931,-0.008939772844314575,-0.002626404166221619,0.009230673313140869,XArbitraryZVertical,0.132748249689999,0.005015610714521632,0.4246014839426616,0.8955816058063603,-0.1037464290857315,-0.2420330494642258,-0.9647054672241211,0,0,0,-1,-1,15999.65754925,unknown,2,2021-04-05 21:48:26.891 -0400,2021-04-05 19:23:45.401 -0400,774,1.414659,0,0,572.4493,0,0,2021-04-05 21:48:26.891 -0400,639366517.1837548,0,-3,98.20214,1,0.64
2021-04-05 21:48:38.343 -0400,0,0,0,0,0,0,0,0,0,16011.0717565,-0.1081695556640625,-0.24774169921875,-0.9609375,16011.05667029167,0.9003917814469937,-0.107258907828858,0.2446083696311467,-0.01408620271831751,-0.01197869889438152,0.04819130524992943,-0.006072990596294403,-0.006023108959197998,0.009990513324737549,XArbitraryZVertical,0.1328367838852381,0.005108518221446916,0.4253825121907314,0.8951971561399547,-0.1038666293025017,-0.2421763688325882,-0.9646565914154053,0,0,0,-1,-1,15999.65754925,unknown,2,2021-04-05 21:48:26.891 -0400,2021-04-05 19:23:45.401 -0400,774,1.414659,0,0,572.4493,0,0,2021-04-05 21:48:26.891 -0400,639366517.1837548,0,-3,98.20214,1,0.64
2021-04-05 21:48:38.384 -0400,0,0,0,0,0,0,0,0,0,16011.1069435,-0.10400390625,-0.24755859375,-0.957122802734375,16011.0868325,0.9018829515852108,-0.1079731908383286,0.2444320225058566,0.001447028480470181,-0.006178868003189564,0.04514420032501221,-0.003060035407543182,-0.005324468016624451,0.002817392349243164,XArbitraryZVertical,0.1329066853919108,0.00484934768843662,0.4260112926176574,0.8948892039237939,-0.1045602411031723,-0.2420052736997604,-0.9646245837211609,0,0,0,-1,-1,15999.65754925,unknown,2,2021-04-05 21:48:26.891 -0400,2021-04-05 19:23:45.401 -0400,774,1.414659,0,0,572.4493,0,0,2021-04-05 21:48:26.891 -0400,639366517.1837548,0,-3,98.20214,1,0.64
2021-04-05 21:48:38.389 -0400,0,0,0,0,0,0,0,0,0,16011.1421305,-0.095184326171875,-0.2461700439453125,-0.97149658203125,16011.1169835,0.9029638339667381,-0.1085979934481872,0.2438282963191059,-0.02794190868735313,-0.01989521272480488,0.03758065402507782,0.001174785196781158,-0.006139189004898071,0.007581353187561035,XArbitraryZVertical,0.1327689504828439,0.004509359434640029,0.4264839741980265,0.8946862393014117,-0.1051787361502647,-0.2414194494485855,-0.964704155921936,0,0,0,-1,-1,15999.65754925,unknown,2,2021-04-05 21:48:26.891 -0400,2021-04-05 19:23:45.401 -0400,774,1.414659,0,0,572.4493,0,0,2021-04-05 21:48:26.891 -0400,639366517.1837548,0,-3,98.20214,1,0.64
2021-04-05 21:48:38.413 -0400,0,0,0,0,0,0,0,0,0,16011.1773475,-0.0913848876953125,-0.2427520751953125,-0.9546356201171875,16011.1471655,0.904434027532926,-0.1100085596526171,0.2438584093995017,0.00378783605992794,-0.02381909266114235,0.04324020445346832,0.008912831544876099,-0.004935026168823242,-0.004644870758056641,XArbitraryZVertical,0.1330801894781212,0.003982770861074857,0.4270462367373087,0.8943743379161984,-0.1065386086702347,-0.2414486706256866,-0.9645475745201111,0,0,0,-1,-1,15999.65754925,unknown,2,2021-04-05 21:48:26.891 -0400,2021-04-05 19:23:45.401 -0400,774,1.414659,0,0,572.4493,0,0,2021-04-05 21:48:26.891 -0400,639366517.1837548,0,-3,98.20214,1,0.64
2021-04-05 21:48:38.447 -0400,0,0,0,0,0,0,0,0,0,16011.2125345,-0.09332275390625,-0.2470855712890625,-0.959930419921875,16011.2074985,0.9084931972746649,-0.1111081097398262,0.2431336709089967,-0.04020931571722031,-0.01594527438282967,0.07666134834289551,0.01395999640226364,-0.003837868571281433,0.01315701007843018,XArbitraryZVertical,0.1329859565568509,0.003601861917926485,0.4288245840014738,0.8935386117818384,-0.1076184883713722,-0.2407453060150146,-0.9646035432815552,0,0,0,-1,-1,15999.65754925,unknown,2,2021-04-05 21:48:26.891 -0400,2021-04-05 19:23:45.401 -0400,774,1.414659,0,0,572.4493,0,0,2021-04-05 21:48:26.891 -0400,639366517.1837548,0,-3,98.20214,1,0.64
2021-04-05 21:48:38.483 -0400,0,0,0,0,0,0,0,0,0,16011.2477215,-0.1002349853515625,-0.244049072265625,-0.9847412109375,16011.2376805,0.9105913032359295,-0.1124594279755908,0.2416154381581598,-0.0387621633708477,-0.05354714021086693,0.07716876268386841,0.01504487544298172,-0.005922064185142517,9.763240814208984e-05,XArbitraryZVertical,0.1325989986666076,0.002802480264684879,0.4297500938640033,0.89315425486928,-0.1089627668261528,-0.2392714470624924,-0.9648193120956421,0,0,0,-1,-1,15999.65754925,unknown,2,2021-04-05 21:48:26.891 -0400,2021-04-05 19:23:45.401 -0400,774,1.414659,0,0,572.4493,0,0,2021-04-05 21:48:26.891 -0400,639366517.1837548,0,-3,98.20214,1,0.64
2021-04-05 21:48:38.518 -0400,0,0,0,0,0,0,0,0,0,16011.2829385,-0.1071014404296875,-0.238006591796875,-0.9783172607421875,16011.2678325,0.9131123736155775,-0.1135707753504333,0.2412981960664703,0.02037928439676762,0.003778158919885755,0.09150354564189911,0.00988481193780899,-0.005848631262779236,-0.02219599485397339,XArbitraryZVertical,0.1326941404375861,0.002403345701041516,0.4308183003549486,0.8926264622842105,-0.1100435480475426,-0.2389634102582932,-0.9647729992866516,0,0,0,-1,-1,15999.65754925,unknown,2,2021-04-05 21:48:26.891 -0400,2021-04-05 19:23:45.401 -0400,774,1.414659,0,0,572.4493,0,0,2021-04-05 21:48:26.891 -0400,639366517.1837548,0,-3,98.20214,1,0.64
2021-04-05 21:48:38.553 -0400,0,0,0,0,0,0,0,0,0,16011.3181255,-0.11956787109375,-0.236297607421875,-0.9609222412109375,16011.2980145,0.9158902495433769,-0.1127908830599746,0.2419926874073798,0.01980089023709297,0.04280612990260124,0.08524584770202637,0.001575812697410583,0.002287223935127258,-0.009488761425018311,XArbitraryZVertical,0.1328298388041029,0.00308975727305451,0.4320734800940547,0.8919973250747225,-0.1092723906040192,-0.2396377325057983,-0.9646933674812317,0,0,0,-1,-1,15999.65754925,unknown,2,2021-04-05 21:48:26.891 -0400,2021-04-05 19:23:45.401 -0400,774,1.414659,0,0,572.4493,0,0,2021-04-05 21:48:26.891 -0400,639366517.1837548,0,-3,98.20214,1,0.64
2021-04-05 21:48:38.589 -0400,0,0,0,0,0,0,0,0,0,16011.3533115,-0.114776611328125,-0.2317047119140625,-0.9619598388671875,16011.3281655,0.9182622799111921,-0.1120913318286325,0.2427472772359977,0.04376794025301933,0.01061533205211163,0.0659787729382515,-0.01099066436290741,0.004072621464729309,0.00366741418838501,XArbitraryZVertical,0.133008649885308,0.003727116679494082,0.4331385316847358,0.8914515907652807,-0.1085772514343262,-0.2403702586889267,-0.9645895957946777,0,0,0,-1,-1,15999.65754925,unknown,2,2021-04-05 21:48:26.891 -0400,2021-04-05 19:23:45.401 -0400,774,1.414659,0,0,572.4493,0,0,2021-04-05 21:48:26.891 -0400,639366517.1837548,0,-3,98.20214,1,0.64
2021-04-05 21:48:38.624 -0400,0,0,0,0,0,0,0,0,0,16011.3885295,-0.115997314453125,-0.226226806640625,-0.9474029541015625,16011.3885295,0.9211186774153962,-0.1110425092947099,0.242181239113777,-0.002204964403063059,0.05063781142234802,0.05998999252915382,-0.009088180959224701,0.01653887331485748,0.01432228088378906,XArbitraryZVertical,0.1325249308714778,0.004257868181905802,0.4345101121653452,0.8908535342902536,-0.1075805723667145,-0.2398207783699036,-0.9648380279541016,0,0,0,-1,-1,15999.65754925,unknown,2,2021-04-05 21:48:26.891 -0400,2021-04-05 19:23:45.401 -0400,774,1.414659,0,0,572.4493,0,0,2021-04-05 21:48:26.891 -0400,639366517.1837548,0,-3,98.20214,1,0.64
2021-04-05 21:48:38.659 -0400,0,0,0,0,0,0,0,0,0,16011.4237165,-0.12457275390625,-0.2371826171875,-0.940155029296875,16011.4186805,0.9230555219656532,-0.1100912816040691,0.2412556694183877,-0.05077244341373444,0.049849983304739,0.05181007459759712,-0.01596309989690781,0.007232651114463806,0.02454739809036255,XArbitraryZVertical,0.131904302052232,0.004602680872953795,0.4354830376380237,0.8904688306313118,-0.1066870838403702,-0.238922119140625,-0.9651601314544678,0,0,0,-1,-1,15999.65754925,unknown,2,2021-04-05 21:48:26.891 -0400,2021-04-05 19:23:45.401 -0400,774,1.414659,0,0,572.4493,0,0,2021-04-05 21:48:26.891 -0400,639366517.1837548,0,-3,98.20214,1,0.64
2021-04-05 21:48:38.694 -0400,0,0,0,0,0,0,0,0,0,16011.4589025,-0.1160430908203125,-0.2427215576171875,-0.952850341796875,16011.4488625,0.9239914397414011,-0.109776392822086,0.238754394487936,-0.08312981575727463,0.005450664088129997,0.03362749144434929,-0.01823130995035172,-0.003375664353370667,0.02147924900054932,XArbitraryZVertical,0.1307273708929284,0.004244617415529027,0.4360480830942707,0.8903675727494513,-0.1064483001828194,-0.2364925444126129,-0.9657846689224243,0,0,0,-1,-1,15999.65754925,unknown,2,2021-04-05 21:48:26.891 -0400,2021-04-05 19:23:45.401 -0400,774,1.414659,0,0,572.4493,0,0,2021-04-05 21:48:26.891 -0400,639366517.1837548,0,-3,98.20214,1,0.64
2021-04-05 21:48:38.730 -0400,0,0,0,0,0,0,0,0,0,16011.4941205,-0.1088104248046875,-0.255767822265625,-0.96929931640625,16011.4790135,0.9249251078716133,-0.1106916012739783,0.2358851388424235,-0.08996812999248505,-0.01986372470855713,0.03737792372703552,-0.0051116943359375,-0.01226800680160522,0.01109606027603149,XArbitraryZVertical,0.129656331630609,0.003255303897304432,0.4365500035235509,0.8902823936418236,-0.1074066609144211,-0.2337037026882172,-0.9663572907447815,0,0,0,-1,-1,15999.65754925,unknown,2,2021-04-05 21:48:26.891 -0400,2021-04-05 19:23:45.401 -0400,774,1.414659,0,0,572.4493,0,0,2021-04-05 21:48:26.891 -0400,639366517.1837548,0,-3,98.20214,1,0.64
2021-04-05 21:48:38.764 -0400,0,0,0,0,0,0,0,0,0,16011.5293065,-0.105255126953125,-0.254852294921875,-0.996337890625,16011.5091955,0.9255428418171378,-0.1117945240877016,0.2327156440151127,-0.1164490059018135,-0.006565496791154146,0.02460460364818573,0.001315690577030182,-0.02652032673358917,-0.004740715026855469,XArbitraryZVertical,0.128494668691004,0.002093675041906361,0.436914636506121,0.890275443952374,-0.1085545048117638,-0.2306208163499832,-0.9669694900512695,0,0,0,-1,-1,15999.65754925,unknown,2,2021-04-05 21:48:26.891 -0400,2021-04-05 19:23:45.401 -0400,774,1.414659,0,0,572.4493,0,0,2021-04-05 21:48:26.891 -0400,639366517.1837548,0,-3,98.20214,1,0.64
2021-04-05 21:48:38.841 -0400,0,0,0,0,0,0,0,0,0,16011.5644935,-0.100921630859375,-0.2510986328125,-1.00372314453125,16011.5393775,0.9263606028321957,-0.1124814201457088,0.2301552208813798,-0.06341288238763809,-0.002323389519006014,0.04228270053863525,0.004029437899589539,-0.02672368288040161,-0.02885961532592773,XArbitraryZVertical,0.127511821726472,0.001265807376025467,0.4373643416051452,0.8901975246340399,-0.1092846095561981,-0.228128656744957,-0.9674782752990723,0,0,0,-1,-1,15999.65754925,unknown,2,2021-04-05 21:48:26.891 -0400,2021-04-05 19:23:45.401 -0400,774,1.414659,0,0,572.4493,0,0,2021-04-05 21:48:26.891 -0400,639366517.1837548,0,-3,98.20214,1,0.64
2021-04-05 21:48:38.881 -0400,0,0,0,0,0,0,0,0,0,16011.5997105,-0.109130859375,-0.2452392578125,-0.983856201171875,16011.5695285,0.9279499926031589,-0.1127511600047999,0.2297841608626838,0.02365998923778534,0.00357014499604702,0.06695924699306488,0.007595814764499664,-0.02409425377845764,-0.03774672746658325,XArbitraryZVertical,0.1274058361408606,0.001163707481583624,0.4380732365004918,0.8898641992171348,-0.1095550879836082,-0.2277673631906509,-0.9675328135490417,0,0,0,-1,-1,15999.65754925,unknown,2,2021-04-05 21:48:26.891 -0400,2021-04-05 19:23:45.401 -0400,774,1.414659,0,0,572.4493,0,0,2021-04-05 21:48:26.891 -0400,639366517.1837548,0,-3,98.20214,1,0.64
2021-04-05 21:48:38.887 -0400,0,0,0,0,0,0,0,0,0,16011.6348975,-0.1180572509765625,-0.22412109375,-0.95867919921875,16011.6298625,0.9323591104820067,-0.1133273945000583,0.2345952419237054,0.02295010164380074,-0.01994558796286583,0.06240374967455864,0.01291093975305557,-0.02963566780090332,0.007446229457855225,XArbitraryZVertical,0.1296536033210353,0.002274800776605418,0.4397512828600189,0.8887089691052775,-0.1099874079227448,-0.2324493378400803,-0.9663695096969604,0,0,0,-1,-1,15999.65754925,unknown,2,2021-04-05 21:48:26.891 -0400,2021-04-05 19:23:45.401 -0400,774,1.414659,0,0,572.4493,0,0,2021-04-05 21:48:26.891 -0400,639366517.1837548,0,-3,98.20214,1,0.64
2021-04-05 21:48:38.906 -0400,0,0,0,0,0,0,0,0,0,16011.6700845,-0.1118316650390625,-0.2326507568359375,-0.9546966552734375,16011.6600445,0.9346828636397797,-0.1133271174213441,0.2365232833789169,0.03020190075039864,-0.01341760531067848,0.05319591611623764,0.01261564344167709,-0.006505370140075684,0.00863182544708252,XArbitraryZVertical,0.1305012415124659,0.002861900712674949,0.4406842304767318,0.8881208255756886,-0.1099362522363663,-0.2343241274356842,-0.965922474861145,0,0,0,-1,-1,15999.65754925,unknown,2,2021-04-05 21:48:26.891 -0400,2021-04-05 19:23:45.401 -0400,774,1.414659,0,0,572.4493,0,0,2021-04-05 21:48:26.891 -0400,639366517.1837548,0,-3,98.20214,1,0.64
2021-04-05 21:48:38.940 -0400,0,0,0,0,0,0,0,0,0,16011.7053015,-0.1100921630859375,-0.2281951904296875,-0.9557952880859375,16011.6901955,0.9361904757266061,-0.1135048378470179,0.2371952554380546,0.02957336977124214,-0.009096177294850349,0.04187605157494545,0.002835974097251892,0.005424082279205322,0.01028668880462646,XArbitraryZVertical,0.1308345155742334,0.003033683083576219,0.4413072111788397,0.8877617908396668,-0.1100900545716286,-0.2349773347377777,-0.9657462239265442,0,0,0,-1,-1,15999.65754925,unknown,2,2021-04-05 21:48:26.891 -0400,2021-04-05 19:23:45.401 -0400,774,1.414659,0,0,572.4493,0,0,2021-04-05 21:48:26.891 -0400,639366517.1837548,0,-3,98.20214,1,0.64
2021-04-05 21:48:38.976 -0400,0,0,0,0,0,0,0,0,0,16011.7404885,-0.1087799072265625,-0.218719482421875,-0.95556640625,16011.7203775,0.9374414857592741,-0.1137936622929666,0.2379832617121535,0.01704719290137291,-0.008462999016046524,0.03684946894645691,0.00373472273349762,0.00672401487827301,0.007507145404815674,XArbitraryZVertical,0.131243657339243,0.003166164638930956,0.441802596248438,0.8874545828811967,-0.1103479191660881,-0.2357432097196579,-0.9655301570892334,0,0,0,-1,-1,15999.65754925,unknown,2,2021-04-05 21:48:26.891 -0400,2021-04-05 19:23:45.401 -0400,774,1.414659,0,0,572.4493,0,0,2021-04-05 21:48:26.891 -0400,639366517.1837548,0,-3,98.20214,1,0.64
2021-04-05 21:48:39.011 -0400,0,0,0,0,0,0,0,0,0,16011.7756755,-0.1203460693359375,-0.224700927734375,-0.951934814453125,16011.7505595,0.9388212606832409,-0.1139747797941678,0.2382974883453639,-0.001701160799711943,0.005960393697023392,0.04843130707740784,0.001734405755996704,0.01732905209064484,0.00987011194229126,XArbitraryZVertical,0.1314199269841842,0.003247770920104394,0.442386496535451,0.8871372624397262,-0.1105143651366234,-0.2360485643148422,-0.9654365181922913,0,0,0,-1,-1,15999.65754925,unknown,2,2021-04-05 21:48:26.891 -0400,2021-04-05 19:23:45.401 -0400,774,1.414659,0,0,572.4493,0,0,2021-04-05 21:48:26.891 -0400,639366517.1837548,0,-3,98.20214,1,0.64
2021-04-05 21:48:39.046 -0400,0,0,0,0,0,0,0,0,0,16011.8108925,-0.1139373779296875,-0.2258148193359375,-0.9623565673828125,16011.7807105,0.9396196818614756,-0.1138731864698439,0.2372128487724625,-0.06346261501312256,0.004769776482135057,0.01257690135389566,-0.008603803813457489,0.01226188242435455,0.01446866989135742,XArbitraryZVertical,0.1309184239885902,0.003098643337164092,0.4428037000759104,0.8870037245181575,-0.1104453057050705,-0.2349944412708282,-0.9657015204429626,0,0,0,-1,-1,15999.65754925,unknown,2,2021-04-05 21:48:26.891 -0400,2021-04-05 19:23:45.401 -0400,774,1.414659,0,0,572.4493,0,0,2021-04-05 21:48:26.891 -0400,639366517.1837548,0,-3,98.20214,1,0.64
2021-04-05 21:48:39.081 -0400,0,0,0,0,0,0,0,0,0,16011.8460795,-0.120361328125,-0.2365264892578125,-0.9621124267578125,16011.8410435,0.939870102221242,-0.1151738767419866,0.2332072877069811,-0.04697786271572113,-0.01660975441336632,0.004775022156536579,-0.004173532128334045,-0.002543434500694275,-0.000617682933807373,XArbitraryZVertical,0.1294417688023065,0.001626986567684717,0.4430378032709745,0.8871075499403139,-0.111808568239212,-0.2310991734266281,-0.9664843678474426,0,0,0,-1,-1,15999.65754925,unknown,2,2021-04-05 21:48:26.891 -0400,2021-04-05 19:23:45.401 -0400,774,1.414659,0,0,572.4493,0,0,2021-04-05 21:48:26.891 -0400,639366517.1837548,0,-3,98.20214,1,0.64
2021-04-05 21:48:39.116 -0400,0,0,0,0,0,0,0,0,0,16011.8812665,-0.116241455078125,-0.23760986328125,-0.968017578125,16011.8712255,0.9394620188390375,-0.1156433966641518,0.2316396391601779,-0.06173743307590485,-0.01538359187543392,-0.02263719588518143,-0.007706418633460999,-0.008616060018539429,0.001610994338989258,XArbitraryZVertical,0.1288553917280376,0.0010358071021701,0.4429075920324829,0.8872587370833208,-0.1123040020465851,-0.2295736819505692,-0.9667904376983643,0,0,0,-1,-1,15999.65754925,unknown,2,2021-04-05 21:48:26.891 -0400,2021-04-05 19:23:45.401 -0400,774,1.414659,0,0,572.4493,0,0,2021-04-05 21:48:26.891 -0400,639366517.1837548,0,-3,98.20214,1,0.64
2021-04-05 21:48:39.151 -0400,0,0,0,0,0,0,0,0,0,16011.9164835,-0.1081390380859375,-0.2384490966796875,-0.99188232421875,16011.9014075,0.9382536132081505,-0.1163346011013678,0.2297885570742492,-0.05973604694008827,-0.05906414613127708,-0.03524849191308022,0.0007929131388664246,-0.01105895638465881,-0.009658336639404297,XArbitraryZVertical,0.1281929994852221,0.0002307398953877255,0.4424226306059083,0.8875971206698479,-0.1130213588476181,-0.2277716398239136,-0.9671329855918884,0,0,0,-1,-1,15999.65754925,unknown,2,2021-04-05 21:48:26.891 -0400,2021-04-05 19:23:45.401 -0400,774,1.414659,0,0,572.4493,0,0,2021-04-05 21:48:26.891 -0400,639366517.1837548,0,-3,98.20214,1,0.64
2021-04-05 21:48:39.187 -0400,0,0,0,0,0,0,0,0,0,16011.9516705,-0.116302490234375,-0.236083984375,-0.9875640869140625,16011.9315595,0.9373832794115938,-0.1185840737054559,0.2295789300847452,0.02385478839278221,-0.08093392103910446,-0.01774150505661964,0.00623919814825058,-0.008699595928192139,-0.02578258514404297,XArbitraryZVertical,0.128597760353958,-0.0008711700075714439,0.4419027725631497,0.8877972134414813,-0.1152022555470467,-0.2275675237178802,-0.966923713684082,0,0,0,-1,-1,15999.65754925,unknown,2,2021-04-05 21:48:26.891 -0400,2021-04-05 19:23:45.401 -0400,774,1.414659,0,0,572.4493,0,0,2021-04-05 21:48:26.891 -0400,639366517.1837548,0,-3,98.20214,1,0.64
2021-04-05 21:48:39.222 -0400,0,0,0,0,0,0,0,0,0,16011.9868875,-0.1226654052734375,-0.2422943115234375,-0.970794677734375,16011.9617405,0.9370116001873796,-0.1203853046918598,0.2309485809689437,0.03499593585729599,-0.03220952674746513,-0.02129913866519928,0.0006036460399627686,-0.007183000445365906,-0.02115976810455322,XArbitraryZVertical,0.1295991349478783,-0.001383847337146535,0.4415498169140194,0.8878265175558107,-0.1169061809778214,-0.2289010286331177,-0.9664043188095093,0,0,0,-1,-1,15999.65754925,unknown,2,2021-04-05 21:48:26.891 -0400,2021-04-05 19:23:45.401 -0400,774,1.414659,0,0,572.4493,0,0,2021-04-05 21:48:26.891 -0400,639366517.1837548,0,-3,98.20214,1,0.64
2021-04-05 21:48:39.257 -0400,0,0,0,0,0,0,0,0,0,16012.0220745,-0.1171112060546875,-0.23828125,-0.9539642333984375,16011.9918925,0.9359439702948561,-0.1206547821184902,0.2323154232879908,0.04056107252836227,-0.01753614470362663,-0.05082310736179352,-0.005033083260059357,-0.01032347977161407,-0.006427109241485596,XArbitraryZVertical,0.1302604166654448,-0.001262780006498506,0.4409862725185449,0.8880099706047354,-0.1171288341283798,-0.2302313596010208,-0.9660612344741821,0,0,0,-1,-1,15999.65754925,unknown,2,2021-04-05 21:48:26.891 -0400,2021-04-05 19:23:45.401 -0400,774,1.414659,0,0,572.4493,0,0,2021-04-05 21:48:26.891 -0400,639366517.1837548,0,-3,98.20214,1,0.64
2021-04-05 21:48:39.292 -0400,0,0,0,0,0,0,0,0,0,16012.0572605,-0.1118011474609375,-0.2274627685546875,-0.9552459716796875,16012.0522255,0.9316185741202953,-0.1210427173773659,0.2343892170197041,-0.00481406319886446,-0.04005067050457001,-0.09398984909057617,0.003813445568084717,-0.0002950131893157959,0.01384907960891724,XArbitraryZVertical,0.1312577099655157,-0.001248688412407653,0.4389297123285632,0.8888815745088389,-0.1174456924200058,-0.2322489470243454,-0.9655396938323975,0,0,0,-1,-1,15999.65754925,unknown,2,2021-04-05 21:48:26.891 -0400,2021-04-05 19:23:45.401 -0400,774,1.414659,0,0,572.4493,0,0,2021-04-05 21:48:26.891 -0400,639366517.1837548,0,-3,98.20214,1,0.64
2021-04-05 21:48:39.377 -0400,0,0,0,0,0,0,0,0,0,16012.09248575,-0.0991973876953125,-0.2196807861328125,-0.95953369140625,16012.08241475,0.9284649286846037,-0.1212659654619332,0.234542691919533,-0.02156409248709679,-0.01852421648800373,-0.09961014240980148,0.0115320086479187,0.005164310336112976,0.004220187664031982,XArbitraryZVertical,0.131372192900142,-0.001520407853303617,0.4375047657834139,0.8895664627259497,-0.1176569312810898,-0.2323982268571854,-0.9654780626296997,0,0,0,-1,-1,15999.65754925,unknown,2,2021-04-05 21:48:26.891 -0400,2021-04-05 19:23:45.401 -0400,774,1.414659,0,0,572.4493,0,0,2021-04-05 21:48:26.891 -0400,639366517.1837548,0,-3,98.20214,1,0.64
2021-04-05 21:48:39.382 -0400,0,0,0,0,0,0,0,0,0,16012.12767175,-0.0973052978515625,-0.2151336669921875,-0.972259521484375,16012.11259675,0.9255039744242717,-0.1210292630883019,0.2343285355153724,-0.0353105217218399,-0.01594650372862816,-0.088835209608078,0.01875577121973038,0.01649165153503418,0.002969861030578613,XArbitraryZVertical,0.1312235223679082,-0.001657609342473417,0.4362141749018508,0.8902217582545975,-0.1174343973398209,-0.2321899235248566,-0.9655552506446838,0,0,0,-1,-1,15999.65754925,unknown,2,2021-04-05 21:48:26.891 -0400,2021-04-05 19:23:45.401 -0400,774,1.414659,0,0,572.4493,0,0,2021-04-05 21:48:26.891 -0400,639366517.1837548,0,-3,98.20214,1,0.64
2021-04-05 21:48:39.398 -0400,0,0,0,0,0,0,0,0,0,16012.16285875,-0.0986328125,-0.2232666015625,-0.9720306396484375,16012.14274775,0.9230835514008562,-0.1206876944162395,0.2336741180002174,-0.0242830365896225,-0.006484886165708303,-0.05574802681803703,0.01992432773113251,0.01493954658508301,-0.008237779140472412,XArbitraryZVertical,0.1308576786325397,-0.001810817850294631,0.4351934078942775,0.8907748340974135,-0.1171228587627411,-0.2315533459186554,-0.9657459855079651,0,0,0,-1,-1,15999.65754925,unknown,2,2021-04-05 21:48:26.891 -0400,2021-04-05 19:23:45.401 -0400,774,1.414659,0,0,572.4493,0,0,2021-04-05 21:48:26.891 -0400,639366517.1837548,0,-3,98.20214,1,0.64
2021-04-05 21:48:39.433 -0400,0,0,0,0,0,0,0,0,0,16012.19807675,-0.1143035888671875,-0.2372589111328125,-0.9654388427734375,16012.17292975,0.9219197747978392,-0.1201366127729927,0.2334962558515137,0.002127266488969326,0.006033691577613354,-0.01612751372158527,0.01796270906925201,0.008113682270050049,-0.006179392337799072,XArbitraryZVertical,0.1306581520079466,-0.001681212297894271,0.4347204151204556,0.8910351979329861,-0.1165955737233162,-0.2313803136348724,-0.9658512473106384,0,0,0,-1,-1,15999.65754925,unknown,2,2021-04-05 21:48:26.891 -0400,2021-04-05 19:23:45.401 -0400,774,1.414659,0,0,572.4493,0,0,2021-04-05 21:48:26.891 -0400,639366517.1837548,0,-3,98.20214,1,0.64
2021-04-05 21:48:39.468 -0400,0,0,0,0,0,0,0,0,0,16012.23326275,-0.1164398193359375,-0.2387237548828125,-0.98431396484375,16012.20308075,0.9214024626675403,-0.1194116350865149,0.2330919915310556,-0.01441380474716425,0.0008143470622599125,-0.02175477333366871,0.004105262458324432,-0.00291500985622406,0.0008794069290161133,XArbitraryZVertical,0.130321327064315,-0.001482324447005105,0.4345584397981216,0.8911638472276302,-0.1159064546227455,-0.2309869974851608,-0.9660283327102661,0,0,0,-1,-1,15999.65754925,unknown,2,2021-04-05 21:48:26.891 -0400,2021-04-05 19:23:45.401 -0400,774,1.414659,0,0,572.4493,0,0,2021-04-05 21:48:26.891 -0400,639366517.1837548,0,-3,98.20214,1,0.64
2021-04-05 21:48:39.503 -0400,0,0,0,0,0,0,0,0,0,16012.26844975,-0.1312713623046875,-0.2299957275390625,-1.000381469726562,16012.26341475,0.9183556843577683,-0.1184515010318654,0.2319935135158378,0.03882010281085968,0.0267298948019743,-0.03591663017868996,0.0007204189896583557,-0.007020413875579834,-0.03820234537124634,XArbitraryZVertical,0.1296244260866761,-0.001497472617366896,0.4333199618895232,0.8918683881621906,-0.1150088012218475,-0.2299180924892426,-0.9663905501365662,0,0,0,-1,-1,15999.65754925,unknown,2,2021-04-05 21:48:26.891 -0400,2021-04-05 19:23:45.401 -0400,774,1.414659,0,0,572.4493,0,0,2021-04-05 21:48:26.891 -0400,639366517.1837548,0,-3,98.20214,1,0.64
2021-04-05 21:48:39.539 -0400,0,0,0,0,0,0,0,0,0,16012.30366675,-0.1388702392578125,-0.222137451171875,-0.9644775390625,16012.29359675,0.9172838226828705,-0.1170891084636587,0.2341587166333034,0.07930618524551392,0.01607440412044525,-0.04673891887068748,0.002137646079063416,-0.01789900660514832,-0.0243220329284668,XArbitraryZVertical,0.1302879554376821,-0.0004774014377806829,0.4328180866443038,0.8920164501943784,-0.1136336699128151,-0.2320247441530228,-0.9660496711730957,0,0,0,-1,-1,15999.65754925,unknown,2,2021-04-05 21:48:26.891 -0400,2021-04-05 19:23:45.401 -0400,774,1.414659,0,0,572.4493,0,0,2021-04-05 21:48:26.891 -0400,639366517.1837548,0,-3,98.20214,1,0.64
2021-04-05 21:48:39.573 -0400,0,0,0,0,0,0,0,0,0,16012.33885375,-0.119293212890625,-0.2267913818359375,-0.9554443359375,16012.32377775,0.9164204770783184,-0.1139954246875126,0.2373065205440273,0.07814005017280579,0.03709110990166664,-0.04090456664562225,-0.007023423910140991,0.001030892133712769,-0.00593721866607666,XArbitraryZVertical,0.1310134951416255,0.001546167141592384,0.4324724255732198,0.8920765715926984,-0.1105608493089676,-0.2350854873657227,-0.9656661748886108,0,0,0,-1,-1,15999.65754925,unknown,2,2021-04-05 21:48:26.891 -0400,2021-04-05 19:23:45.401 -0400,774,1.414659,0,0,572.4493,0,0,2021-04-05 21:48:26.891 -0400,639366517.1837548,0,-3,98.20214,1,0.64
2021-04-05 21:48:39.609 -0400,0,0,0,0,0,0,0,0,0,16012.37404075,-0.1079254150390625,-0.2311553955078125,-0.94952392578125,16012.35392975,0.9154340392794956,-0.1118708243913951,0.2395647260279964,0.06265071034431458,0.06706158816814423,-0.04651564359664917,-0.009241685271263123,0.009542346000671387,0.007177948951721191,XArbitraryZVertical,0.1315560063566382,0.00293078882296551,0.4320558215338616,0.8921952084892167,-0.1084494069218636,-0.2372798025608063,-0.9653688669204712,0,0,0,-1,-1,15999.65754925,unknown,2,2021-04-05 21:48:26.891 -0400,2021-04-05 19:23:45.401 -0400,774,1.414659,0,0,572.4493,0,0,2021-04-05 21:48:26.891 -0400,639366517.1837548,0,-3,98.20214,1,0.64
2021-04-05 21:48:39.644 -0400,0,0,0,0,0,0,0,0,0,16012.40925775,-0.104461669921875,-0.222686767578125,-0.9647064208984375,16012.38411175,0.9140778764642462,-0.1103284803014164,0.2405953175885829,0.02699906937777996,0.008643507957458496,-0.05452372133731842,-0.0009920969605445862,0.007125407457351685,0.01576751470565796,XArbitraryZVertical,0.1316820811596079,0.003758312465737182,0.4314995640472253,0.8924426786157896,-0.1069333627820015,-0.2382808327674866,-0.9652913808822632,0,0,0,-1,-1,15999.65754925,unknown,2,2021-04-05 21:48:26.891 -0400,2021-04-05 19:23:45.401 -0400,774,1.414659,0,0,572.4493,0,0,2021-04-05 21:48:26.891 -0400,639366517.1837548,0,-3,98.20214,1,0.64
2021-04-05 21:48:39.681 -0400,0,0,0,0,0,0,0,0,0,16012.44444475,-0.1014556884765625,-0.23052978515625,-0.96441650390625,16012.41426275,0.9131602435127917,-0.1101496903190089,0.241506446465776,0.04620309174060822,0.02334083989262581,-0.02381256408989429,0.002473525702953339,0.01509028673171997,0.002890408039093018,XArbitraryZVertical,0.1320492518084847,0.003979497018460586,0.4310553834889215,0.8926020191664519,-0.1067368686199188,-0.2391656190156937,-0.9650943279266357,0,0,0,-1,-1,15999.65754925,unknown,2,2021-04-05 21:48:26.891 -0400,2021-04-05 19:23:45.401 -0400,774,1.414659,0,0,572.4493,0,0,2021-04-05 21:48:26.891 -0400,639366517.1837548,0,-3,98.20214,1,0.64
2021-04-05 21:48:39.714 -0400,0,0,0,0,0,0,0,0,0,16012.47963175,-0.1033935546875,-0.23541259765625,-0.9765167236328125,16012.47462675,0.912583311354775,-0.107706612294711,0.243479834898859,0.0316791869699955,0.04902112856507301,-0.00730962073430419,0.001086801290512085,0.01757049560546875,-0.00273972749710083,XArbitraryZVertical,0.1323991894692684,0.005468601606675175,0.430859007958118,0.8926372004659429,-0.1043278127908707,-0.2410812824964523,-0.9648811221122742,0,0,0,-1,-1,15999.65754925,unknown,2,2021-04-05 21:48:26.891 -0400,2021-04-05 19:23:45.401 -0400,774,1.414659,0,0,572.4493,0,0,2021-04-05 21:48:26.891 -0400,639366517.1837548,0,-3,98.20214,1,0.64
2021-04-05 21:48:39.750 -0400,0,0,0,0,0,0,0,0,0,16012.51484875,-0.1026458740234375,-0.2332763671875,-0.974822998046875,16012.50477775,0.9123533427170234,-0.1061105546546926,0.2437768039765369,0.03850113227963448,0.05879062786698341,0.001469173468649387,-0.0002320483326911926,0.006582453846931458,-0.01273173093795776,XArbitraryZVertical,0.1321877232237124,0.006231457329669884,0.4308469306592482,0.8926693842117479,-0.1027800887823105,-0.2413694709539413,-0.9649751782417297,0,0,0,-1,-1,15999.65754925,unknown,2,2021-04-05 21:48:26.891 -0400,2021-04-05 19:23:45.401 -0400,774,1.414659,0,0,572.4493,0,0,2021-04-05 21:48:26.891 -0400,639366517.1837548,0,-3,98.20214,1,0.64
2021-04-05 21:48:39.785 -0400,0,0,0,0,0,0,0,0,0,16012.55003575,-0.1121063232421875,-0.2311248779296875,-0.9698638916015625,16012.53495975,0.9130964139996258,-0.1052769400817816,0.2452005559086079,0.06129772961139679,0.01876286417245865,0.01846202276647091,-0.005787670612335205,0.0112902969121933,-0.0113564133644104,XArbitraryZVertical,0.1326369832819685,0.006967739425670486,0.4311620522915893,0.8924450449740973,-0.1019394174218178,-0.242750883102417,-0.9647177457809448,0,0,0,-1,-1,15999.65754925,unknown,2,2021-04-05 21:48:26.891 -0400,2021-04-05 19:23:45.401 -0400,774,1.414659,0,0,572.4493,0,0,2021-04-05 21:48:26.891 -0400,639366519.7582709,0,-2.99,98.20185,1,0.64
2021-04-05 21:48:39.853 -0400,0,0,0,0,0,0,0,0,0,16012.58522275,-0.1074981689453125,-0.242340087890625,-0.9144744873046875,16012.56511075,0.9139084708835107,-0.103753889541364,0.2460288168423101,0.04556887224316597,0.1286657601594925,0.03080858662724495,-0.0140376091003418,0.0201960951089859,-0.003254413604736328,XArbitraryZVertical,0.1326726731977224,0.007884539164479053,0.4315837751112994,0.8922282403820624,-0.1004491299390793,-0.2435542941093445,-0.9646716117858887,0,0,0,-1,-1,15999.65754925,unknown,2,2021-04-05 21:48:26.891 -0400,2021-04-05 19:23:45.401 -0400,774,1.414659,0,0,572.4493,0,0,2021-04-05 21:48:26.891 -0400,639366519.7582709,0,-2.99,98.20185,1,0.64
2021-04-05 21:48:39.859 -0400,0,0,0,0,0,0,0,0,0,16012.62043975,-0.077392578125,-0.249420166015625,-0.9132843017578125,16012.59529275,0.9147221396847247,-0.09948473776314151,0.2470047272045697,0.01157878059893847,0.1408297121524811,0.00530460849404335,-0.0111919641494751,0.002160593867301941,0.05038022994995117,XArbitraryZVertical,0.1321797496873753,0.01005889092421794,0.4321808596271765,0.8919905547924231,-0.09630624204874039,-0.2445006966590881,-0.9648546576499939,0,0,0,-1,-1,15999.65754925,unknown,2,2021-04-05 21:48:26.891 -0400,2021-04-05 19:23:45.401 -0400,774,1.414659,0,0,572.4493,0,0,2021-04-05 21:48:26.891 -0400,639366519.7582709,0,-2.99,98.20185,1,0.64
2021-04-05 21:48:39.892 -0400,0,0,0,0,0,0,0,0,0,16012.65562675,-0.0562896728515625,-0.24407958984375,-0.9523162841796875,16012.65562675,0.9145111788637614,-0.09792651407627666,0.2401413075655334,-0.1167639493942261,-0.03414830565452576,0.05721066519618034,0.03553146868944168,-0.007857173681259155,0.02561086416244507,XArbitraryZVertical,0.1288004506072911,0.009219607341716505,0.4325230618948677,0.8923279956723396,-0.09496450424194336,-0.2378398776054382,-0.9666509032249451,0,0,0,-1,-1,15999.65754925,unknown,2,2021-04-05 21:48:26.891 -0400,2021-04-05 19:23:45.401 -0400,774,1.414659,0,0,572.4493,0,0,2021-04-05 21:48:26.891 -0400,639366519.7582709,0,-2.99,98.20185,1,0.64
2021-04-05 21:48:39.926 -0400,0,0,0,0,0,0,0,0,0,16012.69081275,-0.058258056640625,-0.2541656494140625,-1.000152587890625,16012.68580775,0.9163327255919609,-0.1011985445846791,0.2366954488936759,-0.1373555362224579,-0.08388571441173553,0.1094264984130859,0.04143111407756805,-0.007406115531921387,-0.02589738368988037,XArbitraryZVertical,0.127973057249684,0.007112711820852366,0.4332924329012939,0.8920929722080062,-0.09820911288261414,-0.2344914972782135,-0.9671446084976196,0,0,0,-1,-1,15999.65754925,unknown,2,2021-04-05 21:48:26.891 -0400,2021-04-05 19:23:45.401 -0400,774,1.414659,0,0,572.4493,0,0,2021-04-05 21:48:26.891 -0400,639366519.7582709,0,-2.99,98.20185,1,0.64
2021-04-05 21:48:39.961 -0400,0,0,0,0,0,0,0,0,0,16012.72603075,-0.0682373046875,-0.2435302734375,-1.012939453125,16012.71595975,0.9207028919193476,-0.1034395075209806,0.2355934756580724,0.008466243743896484,-0.0256126094609499,0.1956956684589386,0.04330438375473022,-0.01410800218582153,-0.0467374324798584,XArbitraryZVertical,0.1279567576346318,0.006148045501238677,0.435151170747181,0.8911973618381613,-0.1004028245806694,-0.2334201037883759,-0.9671785235404968,0,0,0,-1,-1,15999.65754925,unknown,2,2021-04-05 21:48:26.891 -0400,2021-04-05 19:23:45.401 -0400,774,1.414659,0,0,572.4493,0,0,2021-04-05 21:48:26.891 -0400,639366519.7582709,0,-2.99,98.20185,1,0.64
2021-04-05 21:48:39.996 -0400,0,0,0,0,0,0,0,0,0,16012.76121675,-0.0936126708984375,-0.2416229248046875,-1.003555297851562,16012.74614175,0.9273602001460171,-0.1047212234556298,0.2366501092004799,0.04298251867294312,-0.01904965937137604,0.2257898896932602,0.0245596170425415,-0.006855100393295288,-0.04767733812332153,XArbitraryZVertical,0.1286834787488831,0.006240972361800518,0.4379808264457819,0.8897046163483957,-0.1016165465116501,-0.2344474196434021,-0.966803252696991,0,0,0,-1,-1,15999.65754925,unknown,2,2021-04-05 21:48:26.891 -0400,2021-04-05 19:23:45.401 -0400,774,1.414659,0,0,572.4493,0,0,2021-04-05 21:48:26.891 -0400,639366519.7582709,0,-2.99,98.20185,1,0.64
2021-04-05 21:48:40.032 -0400,0,0,0,0,0,0,0,0,0,16012.79640375,-0.0982208251953125,-0.230224609375,-0.93743896484375,16012.77629275,0.9340828572331704,-0.1045907967945985,0.2385905458206945,0.1179870888590813,0.04847833514213562,0.2187217772006989,0.007295988500118256,-0.004953935742378235,-0.02980780601501465,XArbitraryZVertical,0.129489337950751,0.007169939612796007,0.4408806516935214,0.8881470966983696,-0.1014427617192268,-0.2363333404064178,-0.9663621783256531,0,0,0,-1,-1,15999.65754925,unknown,2,2021-04-05 21:48:26.891 -0400,2021-04-05 19:23:45.401 -0400,774,1.414659,0,0,572.4493,0,0,2021-04-05 21:48:26.891 -0400,639366519.7582709,0,-2.99,98.20185,1,0.64
2021-04-05 21:48:40.067 -0400,0,0,0,0,0,0,0,0,0,16012.83162075,-0.1036376953125,-0.2179718017578125,-0.9282379150390625,16012.80647475,0.9402431371255647,-0.1030186963959864,0.2413397271158659,0.05739056691527367,0.06000680848956108,0.1737225204706192,0.001635365188121796,0.00877910852432251,0.02843165397644043,XArbitraryZVertical,0.1303291000812972,0.008890742630457223,0.4435787279632057,0.8866640365868164,-0.09985622763633728,-0.2390037477016449,-0.9658705592155457,0,0,0,-1,-1,15999.65754925,unknown,2,2021-04-05 21:48:26.891 -0400,2021-04-05 19:23:45.401 -0400,774,1.414659,0,0,572.4493,0,0,2021-04-05 21:48:26.891 -0400,639366519.7582709,0,-2.99,98.20185,1,0.64
2021-04-05 21:48:40.102 -0400,0,0,0,0,0,0,0,0,0,16012.86680775,-0.11383056640625,-0.2057342529296875,-0.959564208984375,16012.83665675,0.9447617112619664,-0.1026559879118703,0.240859039649766,-0.02078408561646938,-0.01112126465886831,0.1358480453491211,-0.002289034426212311,0.01939019560813904,0.04097205400466919,XArbitraryZVertical,0.130016344253476,0.009236036025293796,0.4456284598348159,0.8856781689891061,-0.09951765835285187,-0.2385369539260864,-0.9660208821296692,0,0,0,-1,-1,15999.65754925,unknown,2,2021-04-05 21:48:26.891 -0400,2021-04-05 19:23:45.401 -0400,774,1.414659,0,0,572.4493,0,0,2021-04-05 21:48:26.891 -0400,639366519.7582709,0,-2.99,98.20185,1,0.64
2021-04-05 21:48:40.137 -0400,0,0,0,0,0,0,0,0,0,16012.90199475,-0.1185302734375,-0.2112884521484375,-0.9747161865234375,16012.89698975,0.9518834311284093,-0.1047520276484716,0.2376152211057263,-0.08327946066856384,0.04104461148381233,0.1182467862963676,-0.01779270172119141,0.02937659621238708,-0.004143714904785156,XArbitraryZVertical,0.1290281496296236,0.008026603026086133,0.448806435159239,0.8842285379882129,-0.1016226261854172,-0.2353855222463608,-0.9665746092796326,0,0,0,-1,-1,15999.65754925,unknown,2,2021-04-05 21:48:26.891 -0400,2021-04-05 19:23:45.401 -0400,774,1.414659,0,0,572.4493,0,0,2021-04-05 21:48:26.891 -0400,639366519.7582709,0,-2.99,98.20185,1,0.64
2021-04-05 21:48:40.172 -0400,0,0,0,0,0,0,0,0,0,16012.93721175,-0.12042236328125,-0.2315673828125,-0.9575958251953125,16012.92714075,0.9559235459033883,-0.1041385046773982,0.2351838367985252,-0.03731442615389824,0.06557488441467285,0.1527484059333801,-0.0186469778418541,0.01268482208251953,-0.004568040370941162,XArbitraryZVertical,0.1278064114902935,0.007997052895205078,0.4507529218967919,0.8834156790281955,-0.101088784635067,-0.2330217659473419,-0.9672031402587891,0,0,0,-1,-1,15999.65754925,unknown,2,2021-04-05 21:48:26.891 -0400,2021-04-05 19:23:45.401 -0400,774,1.414659,0,0,572.4493,0,0,2021-04-05 21:48:26.891 -0400,639366519.7582709,0,-2.99,98.20185,1,0.64
2021-04-05 21:48:40.207 -0400,0,0,0,0,0,0,0,0,0,16012.97239875,-0.1144561767578125,-0.2510986328125,-0.9531707763671875,16012.95732275,0.9608503246918122,-0.1041377686388879,0.2330940469526342,-0.03872201591730118,0.00948060117661953,0.1588119268417358,-0.01701038330793381,-0.007215991616249084,0.01660513877868652,XArbitraryZVertical,0.1268700581073947,0.007827595491324524,0.4530319927056544,0.8823858758162086,-0.1011384725570679,-0.2309889942407608,-0.9676854610443115,0,0,0,-1,-1,15999.65754925,unknown,2,2021-04-05 21:48:26.891 -0400,2021-04-05 19:23:45.401 -0400,774,1.414659,0,0,572.4493,0,0,2021-04-05 21:48:26.891 -0400,639366519.7582709,0,-2.99,98.20185,1,0.64
2021-04-05 21:48:40.243 -0400,0,0,0,0,0,0,0,0,0,16013.00761575,-0.1182403564453125,-0.2640228271484375,-0.9724273681640625,16012.98747475,0.965190053508751,-0.1065877067879162,0.2304258534593774,-0.05020241439342499,-0.05793121457099915,0.1220956593751907,-0.01149244606494904,-0.0258956104516983,0.01101291179656982,XArbitraryZVertical,0.126241647130343,0.006401796177668913,0.4549238653469682,0.8815136976897887,-0.1035741344094276,-0.2283921390771866,-0.968044102191925,0,0,0,-1,-1,15999.65754925,unknown,2,2021-04-05 21:48:26.891 -0400,2021-04-05 19:23:45.401 -0400,774,1.414659,0,0,572.4493,0,0,2021-04-05 21:48:26.891 -0400,639366519.7582709,0,-2.99,98.20185,1,0.64
2021-04-05 21:48:40.277 -0400,0,0,0,0,0,0,0,0,0,16013.04280275,-0.121063232421875,-0.27850341796875,-0.967529296875,16013.01765675,0.9685749034948026,-0.1094976434222079,0.2285729682717896,-0.03007812052965164,-0.05290341377258301,0.09983683377504349,-0.01180370151996613,-0.03743502497673035,-0.004269719123840332,XArbitraryZVertical,0.126083976454904,0.004900994750864722,0.4563248524534339,0.8808214726072688,-0.10643669962883,-0.2265878319740295,-0.9681576490402222,0,0,0,-1,-1,15999.65754925,unknown,2,2021-04-05 21:48:26.891 -0400,2021-04-05 19:23:45.401 -0400,774,1.414659,0,0,572.4493,0,0,2021-04-05 21:48:26.891 -0400,639366519.7582709,0,-2.99,98.20185,1,0.64
2021-04-05 21:48:40.366 -0400,0,0,0,0,0,0,0,0,0,16013.07799954167,-0.1130523681640625,-0.294525146484375,-0.9630584716796875,16013.07799954167,0.9713415812994997,-0.1129111725408108,0.2272201827541945,-0.04863545671105385,-0.04400982707738876,-0.02759057469666004,-0.009853608906269073,-0.06591346859931946,0.005918920040130615,XArbitraryZVertical,0.1262664811546703,0.003256088607301647,0.4573964074701328,0.8802470103491264,-0.1097753420472145,-0.2252700328826904,-0.9680923223495483,0,0,0,-1,-1,15999.65754925,unknown,2,2021-04-05 21:48:26.891 -0400,2021-04-05 19:23:45.401 -0400,774,1.414659,0,0,572.4493,0,0,2021-04-05 21:48:26.891 -0400,639366519.7582709,0,-2.99,98.20185,1,0.64
2021-04-05 21:48:40.371 -0400,0,0,0,0,0,0,0,0,0,16013.11321654167,-0.0963287353515625,-0.2937164306640625,-0.986175537109375,16013.10818154167,0.9693241353217038,-0.1148276977716983,0.227038999670041,-0.0404244102537632,-0.09141333401203156,-0.08606325089931488,0.00686829537153244,-0.06885184347629547,-0.00627666711807251,XArbitraryZVertical,0.1266278700787728,0.002242387767901193,0.4563964018806824,0.8807171212634636,-0.1116351932287216,-0.2250934988260269,-0.96792072057724,0,0,0,-1,-1,15999.65754925,unknown,2,2021-04-05 21:48:26.891 -0400,2021-04-05 19:23:45.401 -0400,774,1.414659,0,0,572.4493,0,0,2021-04-05 21:48:26.891 -0400,639366519.7582709,0,-2.99,98.20185,1,0.64
2021-04-05 21:48:40.383 -0400,0,0,0,0,0,0,0,0,0,16013.14840354167,-0.09173583984375,-0.2831878662109375,-0.9871826171875,16013.13833254167,0.9666848504052729,-0.1172191473135324,0.2290921743491918,0.0557260774075985,-0.07896416634321213,-0.08538845926523209,0.01922973245382309,-0.06074832379817963,-0.0231817364692688,XArbitraryZVertical,0.1280733212916239,0.001500714095715446,0.4549749484103414,0.881244951998283,-0.1138953119516373,-0.227093517780304,-0.9671899676322937,0,0,0,-1,-1,15999.65754925,unknown,2,2021-04-05 21:48:26.891 -0400,2021-04-05 19:23:45.401 -0400,774,1.414659,0,0,572.4493,0,0,2021-04-05 21:48:26.891 -0400,639366519.7582709,0,-2.99,98.20185,1,0.64
2021-04-05 21:48:40.418 -0400,0,0,0,0,0,0,0,0,0,16013.18359054167,-0.091522216796875,-0.268218994140625,-0.9591217041015625,16013.16851454167,0.9642312249007692,-0.118885845643219,0.2335265905041237,0.09456681460142136,-0.05955510959029198,-0.09033974260091782,0.02296406030654907,-0.04823803901672363,-0.01389956474304199,XArbitraryZVertical,0.1303941350153026,0.001641554680190127,0.4535522444559476,0.881637658686846,-0.1153865903615952,-0.2314098179340363,-0.965989351272583,0,0,0,-1,-1,15999.65754925,unknown,2,2021-04-05 21:48:26.891 -0400,2021-04-05 19:23:45.401 -0400,774,1.414659,0,0,572.4493,0,0,2021-04-05 21:48:26.891 -0400,639366519.7582709,0,-2.99,98.20185,1,0.64
2021-04-05 21:48:40.454 -0400,0,0,0,0,0,0,0,0,0,16013.21880754167,-0.1156463623046875,-0.262359619140625,-0.963775634765625,16013.19869654167,0.9620630966465908,-0.1201487901259753,0.2385667096135156,0.1073828414082527,-0.1031435579061508,-0.07113422453403473,0.02552278339862823,-0.03056608140468597,0.008892655372619629,XArbitraryZVertical,0.1328878933348756,0.002114757556315277,0.4522435260917056,0.8819366334027421,-0.1164652109146118,-0.2363101691007614,-0.9646726846694946,0,0,0,-1,-1,15999.65754925,unknown,2,2021-04-05 21:48:26.891 -0400,2021-04-05 19:23:45.401 -0400,774,1.414659,0,0,572.4493,0,0,2021-04-05 21:48:26.891 -0400,639366519.7582709,0,-2.99,98.20185,1,0.64
2021-04-05 21:48:40.489 -0400,0,0,0,0,0,0,0,0,0,16013.25399454167,-0.1274871826171875,-0.2538299560546875,-0.9497222900390625,16013.22884754167,0.9595605674591746,-0.122381353119318,0.2431930830630388,0.1025753542780876,-0.09744513034820557,-0.1180427595973015,0.002837471663951874,-0.02155667543411255,-0.0004607439041137695,XArbitraryZVertical,0.135419448630413,0.002036446275541236,0.4507383905495356,0.8823221686226738,-0.1184838861227036,-0.2408029735088348,-0.9633148312568665,0,0,0,-1,-1,15999.65754925,unknown,2,2021-04-05 21:48:26.891 -0400,2021-04-05 19:23:45.401 -0400,774,1.414659,0,0,572.4493,0,0,2021-04-05 21:48:26.891 -0400,639366519.7582709,0,-2.99,98.20185,1,0.64
2021-04-05 21:48:40.524 -0400,0,0,0,0,0,0,0,0,0,16013.28918154167,-0.124969482421875,-0.2569580078125,-0.924530029296875,16013.25902954167,0.9550550144111677,-0.122350997382722,0.2480874725433162,0.118103489279747,-0.02945659682154655,-0.1782254725694656,-0.009559318423271179,-0.01105664670467377,0.008218705654144287,XArbitraryZVertical,0.1375614892747984,0.002875192937339158,0.4484822272703108,0.883137757953026,-0.118309386074543,-0.2455504387617111,-0.9621371626853943,0,0,0,-1,-1,15999.65754925,unknown,2,2021-04-05 21:48:26.891 -0400,2021-04-05 19:23:45.401 -0400,774,1.414659,0,0,572.4493,0,0,2021-04-05 21:48:26.891 -0400,639366519.7582709,0,-2.99,98.20185,1,0.64
2021-04-05 21:48:40.559 -0400,0,0,0,0,0,0,0,0,0,16013.32439854167,-0.1188201904296875,-0.2562408447265625,-0.912811279296875,16013.31936254167,0.9400623950568211,-0.1150226332394392,0.2541448316117695,0.07068741321563721,0.1609588116407394,-0.3167979121208191,-0.003953427076339722,-0.009599089622497559,0.04728329181671143,XArbitraryZVertical,0.1386239173003609,0.006470227704401488,0.4420250895620655,0.8862027572981533,-0.1110826283693314,-0.2514178156852722,-0.9614831209182739,0,0,0,-1,-1,15999.65754925,unknown,2,2021-04-05 21:48:26.891 -0400,2021-04-05 19:23:45.401 -0400,774,1.414659,0,0,572.4493,0,0,2021-04-05 21:48:26.891 -0400,639366519.7582709,0,-2.99,98.20185,1,0.64
